trials.thisRepN,trials.thisTrialN,trials.thisN,trials.thisIndex,thisRow.t,notes,trial.started,num_distr,fixation.started,target.started,mouse.started,trial.stopped,mouse.x,mouse.y,mouse.leftButton,mouse.midButton,mouse.rightButton,mouse.time,mouse.clicked_name,participant,session,date,expName,psychopyVersion,frameRate,expStart,
0,0,0,0,0.07716499996604398,,0.01634629996260628,5,0.07716499996604398,0.07716499996604398,0.05633630004012957,2.1640563999535516,[0.492],[-0.312],[1],[0],[0],[2.1061667000176385],['target'],548267,001,2024-10-09_15h10.17.487,untitled,2024.1.5,None,2024-10-09 15h10.20.278976 +0530,
1,0,1,0,2.227535599959083,,2.1724559999420308,5,2.227535599959083,2.227535599959083,0.0342588999774307,4.097253099957015,[0.308],[0.132],[1],[0],[0],[1.8916550000431016],['target'],548267,001,2024-10-09_15h10.17.487,untitled,2024.1.5,None,2024-10-09 15h10.20.278976 +0530,
2,0,2,0,4.194071299978532,,4.103794199996628,10,4.194071299978532,4.194071299978532,0.06180369999492541,8.730201599944849,[0.388],[-0.464],[1],[0],[0],[4.5655400000396185],['target'],548267,001,2024-10-09_15h10.17.487,untitled,2024.1.5,None,2024-10-09 15h10.20.278976 +0530,
3,0,3,0,8.793692599982023,,8.735694499977399,10,8.793692599982023,8.793692599982023,0.032536599959712476,10.613402299990412,[-0.082],[0.036],[1],[0],[0],[1.845507699996233],['target'],548267,001,2024-10-09_15h10.17.487,untitled,2024.1.5,None,2024-10-09 15h10.20.278976 +0530,
4,0,4,0,10.676949099986814,,10.62062869995134,10,10.676949099986814,10.676949099986814,0.03925689996685833,12.281006499950308,[-0.072],[-0.236],[1],[0],[0],[1.621677799965255],['target'],548267,001,2024-10-09_15h10.17.487,untitled,2024.1.5,None,2024-10-09 15h10.20.278976 +0530,
5,0,5,0,12.344615799956955,,12.287910699960776,5,12.344615799956955,12.344615799956955,0.031889400037471205,16.33288039994659,[-0.054],[-0.468],[1],[0],[0],[4.0137648999807425],['target'],548267,001,2024-10-09_15h10.17.487,untitled,2024.1.5,None,2024-10-09 15h10.20.278976 +0530,
6,0,6,0,16.39368039998226,,16.340599299990572,5,16.39368039998226,16.39368039998226,0.03460969997104257,19.579430099984165,[0.22],[0.38],[1],[0],[0],[3.2052190000540577],['target'],548267,001,2024-10-09_15h10.17.487,untitled,2024.1.5,None,2024-10-09 15h10.20.278976 +0530,
7,0,7,0,19.67818319995422,,19.586080899985973,10,19.67818319995422,19.67818319995422,0.05777030001627281,22.296482499979902,[-0.5],[-0.014],[1],[0],[0],[2.6535207999986596],['target'],548267,001,2024-10-09_15h10.17.487,untitled,2024.1.5,None,2024-10-09 15h10.20.278976 +0530,
8,0,8,0,22.361207099980675,,22.304183499945793,5,22.361207099980675,22.361207099980675,0.033018500020261854,26.015075699950103,[0.36],[-0.318],[1],[0],[0],[3.6788205999764614],['target'],548267,001,2024-10-09_15h10.17.487,untitled,2024.1.5,None,2024-10-09 15h10.20.278976 +0530,
9,0,9,0,26.077467399998568,,26.021475999965332,5,26.077467399998568,26.077467399998568,0.030446099990513176,28.946507199958432,[-0.476],[0.412],[1],[0],[0],[2.8956433000275865],['target'],548267,001,2024-10-09_15h10.17.487,untitled,2024.1.5,None,2024-10-09 15h10.20.278976 +0530,
10,0,10,0,28.977088999992702,,28.950621899974067,5,28.977088999992702,28.977088999992702,0.01654199999757111,31.115109999955166,[-0.052],[-0.324],[1],[0],[0],[2.1480241999961436],['target'],548267,001,2024-10-09_15h10.17.487,untitled,2024.1.5,None,2024-10-09 15h10.20.278976 +0530,
11,0,11,0,31.210345899977256,,31.12291389994789,10,31.210345899977256,31.210345899977256,0.060243000043556094,33.09498729999177,[0.12],[0.272],[1],[0],[0],[1.913251499994658],['target'],548267,001,2024-10-09_15h10.17.487,untitled,2024.1.5,None,2024-10-09 15h10.20.278976 +0530,
12,0,12,0,33.1271129999659,,33.097578799992334,5,33.1271129999659,33.1271129999659,0.011499300017021596,34.98001939995447,[-0.452],[0.308],[1],[0],[0],[1.8706696000299416],['target'],548267,001,2024-10-09_15h10.17.487,untitled,2024.1.5,None,2024-10-09 15h10.20.278976 +0530,
13,0,13,0,35.04463889996987,,34.988157899992075,5,35.04463889996987,35.04463889996987,0.0365987999830395,36.31293899996672,[-0.442],[0.188],[1],[0],[0],[1.2893309000064619],['target'],548267,001,2024-10-09_15h10.17.487,untitled,2024.1.5,None,2024-10-09 15h10.20.278976 +0530,
14,0,14,0,36.37770689994795,,36.31996149994666,5,36.37770689994795,36.37770689994795,0.031298100017011166,37.964951399946585,[-0.138],[0.348],[1],[0],[0],[1.614425499981735],['target'],548267,001,2024-10-09_15h10.17.487,untitled,2024.1.5,None,2024-10-09 15h10.20.278976 +0530,
15,0,15,0,38.0439914999879,,37.97262629994657,10,38.0439914999879,38.0439914999879,0.05400850001024082,40.34642519999761,[-0.502],[-0.144],[1],[0],[0],[2.320556700055022],['target'],548267,001,2024-10-09_15h10.17.487,untitled,2024.1.5,None,2024-10-09 15h10.20.278976 +0530,
16,0,16,0,40.444415399979334,,40.353727599955164,10,40.444415399979334,40.444415399979334,0.062256500008516014,42.64700479997555,[0.2],[-0.21],[1],[0],[0],[2.231780299975071],['target'],548267,001,2024-10-09_15h10.17.487,untitled,2024.1.5,None,2024-10-09 15h10.20.278976 +0530,
17,0,17,0,42.72712529997807,,42.653720399946906,10,42.72712529997807,42.72712529997807,0.06100960000185296,45.080195599992294,[-0.248],[0.42],[1],[0],[0],[2.366001699992921],['target'],548267,001,2024-10-09_15h10.17.487,untitled,2024.1.5,None,2024-10-09 15h10.20.278976 +0530,
18,0,18,0,45.177755799959414,,45.089787199976854,10,45.177755799959414,45.177755799959414,0.06098969996673986,48.11407379998127,[0.478],[0.378],[1],[0],[0],[2.963933499995619],['target'],548267,001,2024-10-09_15h10.17.487,untitled,2024.1.5,None,2024-10-09 15h10.20.278976 +0530,
19,0,19,0,48.1603370999801,,48.12113819998922,5,48.1603370999801,48.1603370999801,0.028065000020433217,49.81419989996357,[0.104],[-0.042],[1],[0],[0],[1.6658296000096016],['target'],548267,001,2024-10-09_15h10.17.487,untitled,2024.1.5,None,2024-10-09 15h10.20.278976 +0530,
20,0,20,0,49.87791149999248,,49.82126729999436,5,49.87791149999248,49.87791149999248,0.03305580001324415,53.07933429995319,[0.322],[-0.134],[1],[0],[0],[3.225763700029347],['target'],548267,001,2024-10-09_15h10.17.487,untitled,2024.1.5,None,2024-10-09 15h10.20.278976 +0530,
21,0,21,0,53.160708499955945,,53.08635899994988,10,53.160708499955945,53.160708499955945,0.047709800011944026,55.48040799994487,[0.026],[-0.404],[1],[0],[0],[2.347162500023842],['target'],548267,001,2024-10-09_15h10.17.487,untitled,2024.1.5,None,2024-10-09 15h10.20.278976 +0530,
22,0,22,0,55.543659599963576,,55.487153699970804,10,55.543659599963576,55.543659599963576,0.047599999990779907,58.0301102999947,[0.198],[-0.468],[1],[0],[0],[2.4958339000004344],['target'],548267,001,2024-10-09_15h10.17.487,untitled,2024.1.5,None,2024-10-09 15h10.20.278976 +0530,
23,0,23,0,58.110451799992006,,58.037060599948745,10,58.110451799992006,58.110451799992006,0.04760840005474165,60.263234499958344,[-0.252],[0.026],[1],[0],[0],[2.1791134999948554],['target'],548267,001,2024-10-09_15h10.17.487,untitled,2024.1.5,None,2024-10-09 15h10.20.278976 +0530,
24,0,24,0,60.343964999949094,,60.2703451999696,10,60.343964999949094,60.343964999949094,0.05845819995738566,62.89641779998783,[0.426],[-0.168],[1],[0],[0],[2.568374600028619],['target'],548267,001,2024-10-09_15h10.17.487,untitled,2024.1.5,None,2024-10-09 15h10.20.278976 +0530,
25,0,25,0,62.99371659994358,,62.90326879994245,10,62.99371659994358,62.99371659994358,0.06162570003652945,64.86200549994828,[0.34],[0.276],[1],[0],[0],[1.8981640000129119],['target'],548267,001,2024-10-09_15h10.17.487,untitled,2024.1.5,None,2024-10-09 15h10.20.278976 +0530,
26,0,26,0,64.91027899994515,,64.86436979996506,10,64.91027899994515,64.91027899994515,0.021431900036986917,67.23015589994611,[-0.364],[0.198],[1],[0],[0],[2.343932899995707],['target'],548267,001,2024-10-09_15h10.17.487,untitled,2024.1.5,None,2024-10-09 15h10.20.278976 +0530,
27,0,27,0,67.32824849995086,,67.23706539999694,10,67.32824849995086,67.32824849995086,0.05991599999833852,69.26290509995306,[-0.25],[-0.032],[1],[0],[0],[1.966733800014481],['target'],548267,001,2024-10-09_15h10.17.487,untitled,2024.1.5,None,2024-10-09 15h10.20.278976 +0530,
28,0,28,0,69.32694809994427,,69.26964979997138,10,69.32694809994427,69.32694809994427,0.03953330003423616,71.56344469997566,[0.268],[0.3],[1],[0],[0],[2.254756800015457],['target'],548267,001,2024-10-09_15h10.17.487,untitled,2024.1.5,None,2024-10-09 15h10.20.278976 +0530,
29,0,29,0,71.64422469999408,,71.57032849994721,10,71.64422469999408,71.64422469999408,0.044885899988003075,73.73110659996746,[-0.274],[-0.172],[1],[0],[0],[2.1164875999675132],['target'],548267,001,2024-10-09_15h10.17.487,untitled,2024.1.5,None,2024-10-09 15h10.20.278976 +0530,
30,0,30,0,73.79391889995895,,73.73802189994603,10,73.79391889995895,73.79391889995895,0.04096369998296723,75.64648569998099,[-0.02],[0.424],[1],[0],[0],[1.8682103999890387],['target'],548267,001,2024-10-09_15h10.17.487,untitled,2024.1.5,None,2024-10-09 15h10.20.278976 +0530,
31,0,31,0,75.71163029997842,,75.65419049997581,5,75.71163029997842,75.71163029997842,0.032471699989400804,77.42997369996738,[0.052],[-0.212],[1],[0],[0],[1.744191600009799],['target'],548267,001,2024-10-09_15h10.17.487,untitled,2024.1.5,None,2024-10-09 15h10.20.278976 +0530,
32,0,32,0,77.51045629999135,,77.43776109995088,10,77.51045629999135,77.51045629999135,0.053079299977980554,79.78115689998958,[-0.146],[0.392],[1],[0],[0],[2.2912473999895155],['target'],548267,001,2024-10-09_15h10.17.487,untitled,2024.1.5,None,2024-10-09 15h10.20.278976 +0530,
33,0,33,0,79.86058599996613,,79.7880399999558,10,79.86058599996613,79.86058599996613,0.047803400026168674,82.09735219995491,[0.194],[-0.406],[1],[0],[0],[2.2622320000082254],['target'],548267,001,2024-10-09_15h10.17.487,untitled,2024.1.5,None,2024-10-09 15h10.20.278976 +0530,
34,0,34,0,82.1436939999694,,82.10426889994415,5,82.1436939999694,82.1436939999694,0.03197780001210049,83.78172989998711,[0.122],[-0.054],[1],[0],[0],[1.6462074000155553],['target'],548267,001,2024-10-09_15h10.17.487,untitled,2024.1.5,None,2024-10-09 15h10.20.278976 +0530,
35,0,35,0,83.8269244999974,,83.7884324999759,5,83.8269244999974,83.8269244999974,0.03012519999174401,85.31434729998,[-0.034],[-0.314],[1],[0],[0],[1.4965101000270806],['target'],548267,001,2024-10-09_15h10.17.487,untitled,2024.1.5,None,2024-10-09 15h10.20.278976 +0530,
36,0,36,0,85.36040929995943,,85.32106979994569,5,85.36040929995943,85.36040929995943,0.02888070000335574,87.1466726999497,[-0.252],[0.308],[1],[0],[0],[1.7974202999612316],['target'],548267,001,2024-10-09_15h10.17.487,untitled,2024.1.5,None,2024-10-09 15h10.20.278976 +0530,
37,0,37,0,87.22716529999161,,87.1547992999549,10,87.22716529999161,87.22716529999161,0.05642679997254163,89.3644876999897,[0.176],[-0.372],[1],[0],[0],[2.1541864000028],['target'],548267,001,2024-10-09_15h10.17.487,untitled,2024.1.5,None,2024-10-09 15h10.20.278976 +0530,
38,0,38,0,89.41054299997631,,89.37193599995226,5,89.41054299997631,89.41054299997631,0.028073100023902953,91.69758859998547,[-0.296],[0.106],[1],[0],[0],[2.2983169999788515],['target'],548267,001,2024-10-09_15h10.17.487,untitled,2024.1.5,None,2024-10-09 15h10.20.278976 +0530,
39,0,39,0,91.76113829994574,,91.70426459994633,5,91.76113829994574,91.76113829994574,0.030027400003746152,93.04772709996905,[-0.312],[0.016],[1],[0],[0],[1.313977400015574],['target'],548267,001,2024-10-09_15h10.17.487,untitled,2024.1.5,None,2024-10-09 15h10.20.278976 +0530,
40,0,40,0,93.09370379999746,,93.05431349994615,5,93.09370379999746,93.09370379999746,0.031793200003448874,94.8659538999782,[-0.458],[0.058],[1],[0],[0],[1.780450300022494],['target'],548267,001,2024-10-09_15h10.17.487,untitled,2024.1.5,None,2024-10-09 15h10.20.278976 +0530,
41,0,41,0,94.92788449994987,,94.8724222999881,5,94.92788449994987,94.92788449994987,0.030252100026700646,96.63103299995419,[-0.044],[0.306],[1],[0],[0],[1.7290805000229739],['target'],548267,001,2024-10-09_15h10.17.487,untitled,2024.1.5,None,2024-10-09 15h10.20.278976 +0530,
42,0,42,0,96.6938084999565,,96.6377088999725,10,96.6938084999565,96.6938084999565,0.03429440001491457,99.31346309999935,[-0.244],[0.326],[1],[0],[0],[2.6420705000055023],['target'],548267,001,2024-10-09_15h10.17.487,untitled,2024.1.5,None,2024-10-09 15h10.20.278976 +0530,
43,0,43,0,99.39402379997773,,99.32027049997123,10,99.39402379997773,99.39402379997773,0.04642169998260215,101.52921679994324,[-0.476],[-0.27],[1],[0],[0],[2.1635141000151634],['target'],548267,001,2024-10-09_15h10.17.487,untitled,2024.1.5,None,2024-10-09 15h10.20.278976 +0530,
44,0,44,0,101.56049059994984,,101.53165959997568,5,101.56049059994984,101.56049059994984,0.013196000014431775,103.16679949994432,[-0.154],[-0.066],[1],[0],[0],[1.6217978000058793],['target'],548267,001,2024-10-09_15h10.17.487,untitled,2024.1.5,None,2024-10-09 15h10.20.278976 +0530,
45,0,45,0,103.24477609997848,,103.1748668999644,10,103.24477609997848,103.24477609997848,0.05636479996610433,105.28001279995078,[0.332],[-0.068],[1],[0],[0],[2.0494284000014886],['target'],548267,001,2024-10-09_15h10.17.487,untitled,2024.1.5,None,2024-10-09 15h10.20.278976 +0530,
46,0,46,0,105.36103489995003,,105.28744319995167,10,105.36103489995003,105.36103489995003,0.048382500011939555,107.43078249995597,[0.252],[0.382],[1],[0],[0],[2.0955559000140056],['target'],548267,001,2024-10-09_15h10.17.487,untitled,2024.1.5,None,2024-10-09 15h10.20.278976 +0530,
47,0,47,0,107.51071319996845,,107.43782079999801,10,107.51071319996845,107.51071319996845,0.05367709998972714,109.11356389999855,[-0.472],[-0.292],[1],[0],[0],[1.6226760999998078],['target'],548267,001,2024-10-09_15h10.17.487,untitled,2024.1.5,None,2024-10-09 15h10.20.278976 +0530,
48,0,48,0,109.27721269999165,,109.12085569999181,10,109.27721269999165,109.27721269999165,0.13483669998822734,110.67982839996694,[-0.132],[0.018],[1],[0],[0],[1.424831299984362],['target'],548267,001,2024-10-09_15h10.17.487,untitled,2024.1.5,None,2024-10-09 15h10.20.278976 +0530,
49,0,49,0,110.74374519998673,,110.68700979999267,10,110.74374519998673,110.74374519998673,0.048471199988853186,112.446682699956,[0.426],[-0.086],[1],[0],[0],[1.7122832000022754],['target'],548267,001,2024-10-09_15h10.17.487,untitled,2024.1.5,None,2024-10-09 15h10.20.278976 +0530,
50,0,50,0,112.5447078999714,,112.45340349996695,10,112.5447078999714,112.5447078999714,0.06024369999067858,114.8466202999698,[0.322],[-0.196],[1],[0],[0],[2.3334360999870114],['target'],548267,001,2024-10-09_15h10.17.487,untitled,2024.1.5,None,2024-10-09 15h10.20.278976 +0530,
51,0,51,0,114.91115429997444,,114.85374039999442,5,114.91115429997444,114.91115429997444,0.030185699986759573,116.48288889997639,[-0.49],[0.052],[1],[0],[0],[1.5996234999620356],['target'],548267,001,2024-10-09_15h10.17.487,untitled,2024.1.5,None,2024-10-09 15h10.20.278976 +0530,
52,0,52,0,116.52687779994449,,116.48945109994384,5,116.52687779994449,116.52687779994449,0.028803399996832013,118.46602259995416,[-0.144],[-0.176],[1],[0],[0],[1.9481699999887496],['target'],548267,001,2024-10-09_15h10.17.487,untitled,2024.1.5,None,2024-10-09 15h10.20.278976 +0530,
53,0,53,0,118.5277519999654,,118.47245869995095,10,118.5277519999654,118.5277519999654,0.03689210000447929,120.49642519996269,[-0.472],[-0.46],[1],[0],[0],[1.9877795000211336],['target'],548267,001,2024-10-09_15h10.17.487,untitled,2024.1.5,None,2024-10-09 15h10.20.278976 +0530,
54,0,54,0,120.54379909997806,,120.50419699994382,5,120.54379909997806,120.54379909997806,0.03115230001276359,122.48096539999824,[0.49],[-0.372],[1],[0],[0],[1.946278000017628],['target'],548267,001,2024-10-09_15h10.17.487,untitled,2024.1.5,None,2024-10-09 15h10.20.278976 +0530,
55,0,55,0,122.52711809996981,,122.48742789996322,5,122.52711809996981,122.52711809996981,0.029627200041431934,124.33131879998837,[-0.434],[0.262],[1],[0],[0],[1.8149501999723725],['target'],548267,001,2024-10-09_15h10.17.487,untitled,2024.1.5,None,2024-10-09 15h10.20.278976 +0530,
56,0,56,0,124.39501769997878,,124.33919599995716,5,124.39501769997878,124.39501769997878,0.030646300001535565,126.11284689995227,[-0.194],[-0.074],[1],[0],[0],[1.7444005999714136],['target'],548267,001,2024-10-09_15h10.17.487,untitled,2024.1.5,None,2024-10-09 15h10.20.278976 +0530,
57,0,57,0,126.19419379997998,,126.12001229997259,10,126.19419379997998,126.19419379997998,0.05866959999548271,127.54832949995762,[-0.326],[-0.15],[1],[0],[0],[1.3703309000120498],['target'],548267,001,2024-10-09_15h10.17.487,untitled,2024.1.5,None,2024-10-09 15h10.20.278976 +0530,
58,0,58,0,127.61060709995218,,127.55519519996597,10,127.61060709995218,127.61060709995218,0.04120530001819134,129.11363039998105,[-0.416],[0.172],[1],[0],[0],[1.517803399998229],['target'],548267,001,2024-10-09_15h10.17.487,untitled,2024.1.5,None,2024-10-09 15h10.20.278976 +0530,
59,0,59,0,129.1772784999921,,129.120778099983,10,129.1772784999921,129.1772784999921,0.03821400000015274,130.96398829994723,[-0.26],[-0.238],[1],[0],[0],[1.8056062000105157],['target'],548267,001,2024-10-09_15h10.17.487,untitled,2024.1.5,None,2024-10-09 15h10.20.278976 +0530,
60,0,60,0,131.02833249996183,,130.97076499997638,5,131.02833249996183,131.02833249996183,0.03246369998669252,132.67967289994704,[0.412],[-0.428],[1],[0],[0],[1.677256200055126],['target'],548267,001,2024-10-09_15h10.17.487,untitled,2024.1.5,None,2024-10-09 15h10.20.278976 +0530,
61,0,61,0,132.76086539996322,,132.6881273999461,10,132.76086539996322,132.76086539996322,0.061820600007195026,134.21338679996552,[-0.108],[-0.252],[1],[0],[0],[1.4651561999926344],['target'],548267,001,2024-10-09_15h10.17.487,untitled,2024.1.5,None,2024-10-09 15h10.20.278976 +0530,
62,0,62,0,134.27765519998502,,134.2205703999498,10,134.27765519998502,134.27765519998502,0.038649800000712276,135.8305675999727,[-0.042],[-0.048],[1],[0],[0],[1.5720818000263534],['target'],548267,001,2024-10-09_15h10.17.487,untitled,2024.1.5,None,2024-10-09 15h10.20.278976 +0530,
63,0,63,0,135.9445846999879,,135.83881469996413,10,135.9445846999879,135.9445846999879,0.06470519996946678,138.24705209996318,[0.39],[-0.444],[1],[0],[0],[2.3442978999810293],['target'],548267,001,2024-10-09_15h10.17.487,untitled,2024.1.5,None,2024-10-09 15h10.20.278976 +0530,
64,0,64,0,138.3113672999898,,138.2539721999783,5,138.3113672999898,138.3113672999898,0.03120819997275248,140.38149549998343,[-0.486],[0.246],[1],[0],[0],[2.097096999990754],['target'],548267,001,2024-10-09_15h10.17.487,untitled,2024.1.5,None,2024-10-09 15h10.20.278976 +0530,
65,0,65,0,140.4446912999847,,140.38803709996864,5,140.4446912999847,140.4446912999847,0.03083810000680387,142.2136067999527,[0.41],[-0.278],[1],[0],[0],[1.7953125999774784],['target'],548267,001,2024-10-09_15h10.17.487,untitled,2024.1.5,None,2024-10-09 15h10.20.278976 +0530,
66,0,66,0,142.29386409994913,,142.22048819996417,10,142.29386409994913,142.29386409994913,0.044994199997745454,144.17968739999924,[-0.072],[-0.148],[1],[0],[0],[1.9150143999722786],['target'],548267,001,2024-10-09_15h10.17.487,untitled,2024.1.5,None,2024-10-09 15h10.20.278976 +0530,
67,0,67,0,144.22729849995812,,144.18686359998537,5,144.22729849995812,144.22729849995812,0.026118899986613542,145.86481659999117,[0.126],[0.274],[1],[0],[0],[1.6527773000416346],['target'],548267,001,2024-10-09_15h10.17.487,untitled,2024.1.5,None,2024-10-09 15h10.20.278976 +0530,
68,0,68,0,145.92771839996567,,145.87252299999818,5,145.92771839996567,145.92771839996567,0.035422699991613626,147.41459749999922,[0.476],[0.348],[1],[0],[0],[1.5074549000128172],['target'],548267,001,2024-10-09_15h10.17.487,untitled,2024.1.5,None,2024-10-09 15h10.20.278976 +0530,
69,0,69,0,147.51067619997775,,147.42133559996728,10,147.51067619997775,147.51067619997775,0.058887799968943,149.47993089997908,[0.026],[-0.38],[1],[0],[0],[2.000309799972456],['target'],548267,001,2024-10-09_15h10.17.487,untitled,2024.1.5,None,2024-10-09 15h10.20.278976 +0530,
70,0,70,0,149.54480529995635,,149.48658899997827,5,149.54480529995635,149.54480529995635,0.031753099989145994,151.09827259997837,[-0.196],[-0.148],[1],[0],[0],[1.5806929000536911],['target'],548267,001,2024-10-09_15h10.17.487,untitled,2024.1.5,None,2024-10-09 15h10.20.278976 +0530,
71,0,71,0,151.16052659996785,,151.105155199999,5,151.16052659996785,151.16052659996785,0.032427300000563264,153.09817739995196,[0.326],[-0.218],[1],[0],[0],[1.9612409000401385],['target'],548267,001,2024-10-09_15h10.17.487,untitled,2024.1.5,None,2024-10-09 15h10.20.278976 +0530,
72,0,72,0,153.16116129996954,,153.1046503999969,5,153.16116129996954,153.16116129996954,0.03109459998086095,154.71490819996689,[-0.362],[0.228],[1],[0],[0],[1.5798781999619678],['target'],548267,001,2024-10-09_15h10.17.487,untitled,2024.1.5,None,2024-10-09 15h10.20.278976 +0530,
73,0,73,0,154.79432899999665,,154.72233169997344,10,154.79432899999665,154.79432899999665,0.05077889998210594,156.56534429994645,[-0.02],[0.092],[1],[0],[0],[1.793115200009197],['target'],548267,001,2024-10-09_15h10.17.487,untitled,2024.1.5,None,2024-10-09 15h10.20.278976 +0530,
74,0,74,0,156.62810379994335,,156.57228519994533,5,156.62810379994335,156.62810379994335,0.03247649996774271,157.9645179999643,[-0.152],[0.138],[1],[0],[0],[1.3605107999756],['target'],548267,001,2024-10-09_15h10.17.487,untitled,2024.1.5,None,2024-10-09 15h10.20.278976 +0530,
75,0,75,0,158.04431689996272,,157.97096589999273,10,158.04431689996272,158.04431689996272,0.04448759998194873,159.9801512999693,[-0.49],[-0.438],[1],[0],[0],[1.9652807000093162],['target'],548267,001,2024-10-09_15h10.17.487,untitled,2024.1.5,None,2024-10-09 15h10.20.278976 +0530,
76,0,76,0,160.04394529998535,,159.9871720999945,10,160.04394529998535,160.04394529998535,0.04026859998703003,161.68010699999286,[0.168],[0.338],[1],[0],[0],[1.6534448000020348],['target'],548267,001,2024-10-09_15h10.17.487,untitled,2024.1.5,None,2024-10-09 15h10.20.278976 +0530,
77,0,77,0,161.7437597999815,,161.68688619998284,10,161.7437597999815,161.7437597999815,0.046718799974769354,163.8309986999957,[0.4],[-0.382],[1],[0],[0],[2.097808000049554],['target'],548267,001,2024-10-09_15h10.17.487,untitled,2024.1.5,None,2024-10-09 15h10.20.278976 +0530,
78,0,78,0,163.8947736999835,,163.83767579996493,5,163.8947736999835,163.8947736999835,0.03408709994982928,165.71554159995867,[-0.284],[0.304],[1],[0],[0],[1.8444056999869645],['target'],548267,001,2024-10-09_15h10.17.487,untitled,2024.1.5,None,2024-10-09 15h10.20.278976 +0530,
79,0,79,0,165.7942144999979,,165.7220613999525,10,165.7942144999979,165.7942144999979,0.0580016000312753,167.61405009997543,[-0.384],[-0.49],[1],[0],[0],[1.8345929000061005],['target'],548267,001,2024-10-09_15h10.17.487,untitled,2024.1.5,None,2024-10-09 15h10.20.278976 +0530,
80,0,80,0,167.67787709995173,,167.6208828999661,5,167.67787709995173,167.67787709995173,0.03801950003253296,169.24808529997244,[-0.004],[0.372],[1],[0],[0],[1.5898065000073984],['target'],548267,001,2024-10-09_15h10.17.487,untitled,2024.1.5,None,2024-10-09 15h10.20.278976 +0530,
81,0,81,0,169.29382629995234,,169.25477809994482,5,169.29382629995234,169.29382629995234,0.03135950001887977,171.14717639994342,[0.102],[0.252],[1],[0],[0],[1.8618013000232168],['target'],548267,001,2024-10-09_15h10.17.487,untitled,2024.1.5,None,2024-10-09 15h10.20.278976 +0530,
82,0,82,0,171.24495109997224,,171.15420249995077,10,171.24495109997224,171.24495109997224,0.060559900011867285,173.21322419994976,[-0.228],[0.278],[1],[0],[0],[1.9992208000039682],['target'],548267,001,2024-10-09_15h10.17.487,untitled,2024.1.5,None,2024-10-09 15h10.20.278976 +0530,
83,0,83,0,173.29460069997003,,173.2199574999977,10,173.29460069997003,173.29460069997003,0.05960169999161735,175.38125669996953,[0.192],[0.378],[1],[0],[0],[2.1022476999787614],['target'],548267,001,2024-10-09_15h10.17.487,untitled,2024.1.5,None,2024-10-09 15h10.20.278976 +0530,
84,0,84,0,175.44494039996061,,175.38777619996108,5,175.44494039996061,175.44494039996061,0.029593200015369803,176.71633949998068,[0.156],[0.144],[1],[0],[0],[1.2996770999743603],['target'],548267,001,2024-10-09_15h10.17.487,untitled,2024.1.5,None,2024-10-09 15h10.20.278976 +0530,
85,0,85,0,176.81147509999573,,176.72366749995854,10,176.81147509999573,176.81147509999573,0.06254880002234131,178.54706729995087,[0.414],[0.356],[1],[0],[0],[1.761555299977772],['target'],548267,001,2024-10-09_15h10.17.487,untitled,2024.1.5,None,2024-10-09 15h10.20.278976 +0530,
86,0,86,0,178.61130319995573,,178.55426899995655,5,178.61130319995573,178.61130319995573,0.03285960003267974,180.04810969997197,[-0.432],[0.174],[1],[0],[0],[1.461906699987594],['target'],548267,001,2024-10-09_15h10.17.487,untitled,2024.1.5,None,2024-10-09 15h10.20.278976 +0530,
87,0,87,0,180.110564099974,,180.05474499997217,10,180.110564099974,180.110564099974,0.04242219997104257,182.71348839998245,[0.312],[-0.418],[1],[0],[0],[2.6169030999881215],['target'],548267,001,2024-10-09_15h10.17.487,untitled,2024.1.5,None,2024-10-09 15h10.20.278976 +0530,
88,0,88,0,182.79425669997,,182.72008699999424,10,182.79425669997,182.79425669997,0.05281600001035258,184.6803862999659,[0.482],[0.308],[1],[0],[0],[1.9082258000271395],['target'],548267,001,2024-10-09_15h10.17.487,untitled,2024.1.5,None,2024-10-09 15h10.20.278976 +0530,
89,0,89,0,184.77793579996796,,184.68753859994467,10,184.77793579996796,184.77793579996796,0.0630387999699451,186.43132409994723,[0.386],[0.34],[1],[0],[0],[1.6815888999844901],['target'],548267,001,2024-10-09_15h10.17.487,untitled,2024.1.5,None,2024-10-09 15h10.20.278976 +0530,
90,0,90,0,186.49405479995767,,186.43827089999104,5,186.49405479995767,186.49405479995767,0.03229850000934675,187.99801189999562,[0.048],[0.194],[1],[0],[0],[1.5284552000230178],['target'],548267,001,2024-10-09_15h10.17.487,untitled,2024.1.5,None,2024-10-09 15h10.20.278976 +0530,
91,0,91,0,188.0775228999555,,188.0054657999426,10,188.0775228999555,188.0775228999555,0.05810320004820824,190.8969621999422,[0.426],[-0.476],[1],[0],[0],[2.8343955999589525],['target'],548267,001,2024-10-09_15h10.17.487,untitled,2024.1.5,None,2024-10-09 15h10.20.278976 +0530,
92,0,92,0,190.96169109997572,,190.90429379994748,5,190.96169109997572,190.96169109997572,0.03203350002877414,192.83170579996658,[-0.206],[-0.446],[1],[0],[0],[1.8961375000071712],['target'],548267,001,2024-10-09_15h10.17.487,untitled,2024.1.5,None,2024-10-09 15h10.20.278976 +0530,
93,0,93,0,192.8773846999975,,192.83898769994266,5,192.8773846999975,192.8773846999975,0.029342500027269125,194.1640171999461,[0.044],[0.186],[1],[0],[0],[1.2965038000256754],['target'],548267,001,2024-10-09_15h10.17.487,untitled,2024.1.5,None,2024-10-09 15h10.20.278976 +0530,
94,0,94,0,194.22798539994983,,194.17138189997058,5,194.22798539994983,194.22798539994983,0.03749309998238459,195.71551609999733,[0.474],[-0.172],[1],[0],[0],[1.507634500041604],['target'],548267,001,2024-10-09_15h10.17.487,untitled,2024.1.5,None,2024-10-09 15h10.20.278976 +0530,
95,0,95,0,195.7607404999435,,195.72312439995585,5,195.7607404999435,195.7607404999435,0.02719639998394996,197.2647178999614,[-0.098],[0.324],[1],[0],[0],[1.5153378000250086],['target'],548267,001,2024-10-09_15h10.17.487,untitled,2024.1.5,None,2024-10-09 15h10.20.278976 +0530,
96,0,96,0,197.32776599994395,,197.27117109997198,10,197.32776599994395,197.32776599994395,0.04399159998865798,198.81476029998157,[0.342],[0.086],[1],[0],[0],[1.5000583000364713],['target'],548267,001,2024-10-09_15h10.17.487,untitled,2024.1.5,None,2024-10-09 15h10.20.278976 +0530,
97,0,97,0,198.878134199942,,198.82238509994932,5,198.878134199942,198.878134199942,0.0323785999789834,201.17987809999613,[0.358],[-0.234],[1],[0],[0],[2.3259547999477945],['target'],548267,001,2024-10-09_15h10.17.487,untitled,2024.1.5,None,2024-10-09 15h10.20.278976 +0530,
98,0,98,0,201.27823209995404,,201.1870950999437,10,201.27823209995404,201.27823209995404,0.06326409999746829,203.08011219999753,[0.122],[0.326],[1],[0],[0],[1.8304578000097536],['target'],548267,001,2024-10-09_15h10.17.487,untitled,2024.1.5,None,2024-10-09 15h10.20.278976 +0530,
99,0,99,0,203.17800689995056,,203.08667179994518,10,203.17800689995056,203.17800689995056,0.0499769999878481,204.91465579997748,[-0.124],[-0.404],[1],[0],[0],[1.7786140000098385],['target'],548267,001,2024-10-09_15h10.17.487,untitled,2024.1.5,None,2024-10-09 15h10.20.278976 +0530,
100,0,100,0,204.97822729998734,,204.92126909998478,5,204.97822729998734,204.97822729998734,0.030135000008158386,207.48023219994502,[0.006],[0.044],[1],[0],[0],[2.5294067000504583],['target'],548267,001,2024-10-09_15h10.17.487,untitled,2024.1.5,None,2024-10-09 15h10.20.278976 +0530,
101,0,101,0,207.5607431999524,,207.48678689997178,10,207.5607431999524,207.5607431999524,0.05337490001693368,208.8474041999434,[-0.388],[-0.13],[1],[0],[0],[1.3078122000442818],['target'],548267,001,2024-10-09_15h10.17.487,untitled,2024.1.5,None,2024-10-09 15h10.20.278976 +0530,
102,0,102,0,208.92762299999595,,208.8539947999525,10,208.92762299999595,208.92762299999595,0.06137269997270778,210.49767369998153,[-0.264],[0.308],[1],[0],[0],[1.582849600003101],['target'],548267,001,2024-10-09_15h10.17.487,untitled,2024.1.5,None,2024-10-09 15h10.20.278976 +0530,
103,0,103,0,210.59464999998454,,210.50423009996302,10,210.59464999998454,210.59464999998454,0.056781799998134375,217.03044219996082,[0.034],[0.392],[1],[0],[0],[6.470045200025197],['target'],548267,001,2024-10-09_15h10.17.487,untitled,2024.1.5,None,2024-10-09 15h10.20.278976 +0530,
104,0,104,0,217.12799079995602,,217.03756129997782,10,217.12799079995602,217.12799079995602,0.05992820003302768,219.29691179998918,[0.272],[-0.236],[1],[0],[0],[2.2000126999919303],['target'],548267,001,2024-10-09_15h10.17.487,untitled,2024.1.5,None,2024-10-09 15h10.20.278976 +0530,
105,0,105,0,219.39414499996928,,219.30411059997277,10,219.39414499996928,219.39414499996928,0.05590129998745397,221.11377889994765,[0.43],[-0.226],[1],[0],[0],[1.754449800006114],['target'],548267,001,2024-10-09_15h10.17.487,untitled,2024.1.5,None,2024-10-09 15h10.20.278976 +0530,
106,0,106,0,221.1784672999638,,221.12103149999166,5,221.1784672999638,221.1784672999638,0.0355746999848634,222.66730709996773,[-0.094],[0.01],[1],[0],[0],[1.5114462999626994],['target'],548267,001,2024-10-09_15h10.17.487,untitled,2024.1.5,None,2024-10-09 15h10.20.278976 +0530,
107,0,107,0,222.74443449999671,,222.6737499999581,10,222.74443449999671,222.74443449999671,0.04904220002936199,224.17975409998326,[0.084],[0.148],[1],[0],[0],[1.4576157000265084],['target'],548267,001,2024-10-09_15h10.17.487,untitled,2024.1.5,None,2024-10-09 15h10.20.278976 +0530,
108,0,108,0,224.24475099996198,,224.1867809999967,5,224.24475099996198,224.24475099996198,0.03184369998052716,225.74727599998005,[0.024],[0.128],[1],[0],[0],[1.5296256999718025],['target'],548267,001,2024-10-09_15h10.17.487,untitled,2024.1.5,None,2024-10-09 15h10.20.278976 +0530,
109,0,109,0,225.82778169994708,,225.75437719997717,10,225.82778169994708,225.82778169994708,0.05600209999829531,227.39730079995934,[0.31],[0.108],[1],[0],[0],[1.5875788999837823],['target'],548267,001,2024-10-09_15h10.17.487,untitled,2024.1.5,None,2024-10-09 15h10.20.278976 +0530,
110,0,110,0,227.44415169995045,,227.40519499999937,5,227.44415169995045,227.44415169995045,0.027261899958830327,229.01506519998657,[0.022],[-0.286],[1],[0],[0],[1.5835241000168025],['target'],548267,001,2024-10-09_15h10.17.487,untitled,2024.1.5,None,2024-10-09 15h10.20.278976 +0530,
111,0,111,0,229.07837629999267,,229.02193669998087,5,229.07837629999267,229.07837629999267,0.033062600006815046,230.53046259999974,[-0.484],[-0.06],[1],[0],[0],[1.4762151999748312],['target'],548267,001,2024-10-09_15h10.17.487,untitled,2024.1.5,None,2024-10-09 15h10.20.278976 +0530,
112,0,112,0,230.59505749994423,,230.53840589994797,5,230.59505749994423,230.59505749994423,0.03590940003050491,232.33339489996433,[0.252],[-0.358],[1],[0],[0],[1.7581397999892943],['target'],548267,001,2024-10-09_15h10.17.487,untitled,2024.1.5,None,2024-10-09 15h10.20.278976 +0530,
113,0,113,0,232.41151649999665,,232.34174749994418,10,232.41151649999665,232.41151649999665,0.04428849997930229,234.48115629999666,[0.022],[0.044],[1],[0],[0],[2.0959623999660835],['target'],548267,001,2024-10-09_15h10.17.487,untitled,2024.1.5,None,2024-10-09 15h10.20.278976 +0530,
114,0,114,0,234.5613910999964,,234.4878695999505,10,234.5613910999964,234.5613910999964,0.037162200023885816,235.8980092999991,[-0.11],[0.124],[1],[0],[0],[1.3734435999649577],['target'],548267,001,2024-10-09_15h10.17.487,untitled,2024.1.5,None,2024-10-09 15h10.20.278976 +0530,
115,0,115,0,235.97764329996426,,235.90487039997242,10,235.97764329996426,235.97764329996426,0.048568099969998,238.01395219995175,[0.428],[0.148],[1],[0],[0],[2.0610294000362046],['target'],548267,001,2024-10-09_15h10.17.487,untitled,2024.1.5,None,2024-10-09 15h10.20.278976 +0530,
116,0,116,0,238.0785575999762,,238.0212064999505,5,238.0785575999762,238.0785575999762,0.031001799972727895,239.4313859999529,[0.004],[0.168],[1],[0],[0],[1.380345000012312],['target'],548267,001,2024-10-09_15h10.17.487,untitled,2024.1.5,None,2024-10-09 15h10.20.278976 +0530,
117,0,117,0,239.5282135999878,,239.437591599999,10,239.5282135999878,239.5282135999878,0.05972169997403398,240.89877029997297,[-0.322],[0.38],[1],[0],[0],[1.4019036999670789],['target'],548267,001,2024-10-09_15h10.17.487,untitled,2024.1.5,None,2024-10-09 15h10.20.278976 +0530,
118,0,118,0,240.944408499985,,240.90541489998577,5,240.944408499985,240.944408499985,0.02564769994933158,242.88174269994488,[-0.028],[-0.21],[1],[0],[0],[1.95137079997221],['target'],548267,001,2024-10-09_15h10.17.487,untitled,2024.1.5,None,2024-10-09 15h10.20.278976 +0530,
119,0,119,0,242.9450847999542,,242.8882940999465,5,242.9450847999542,242.9450847999542,0.030518400017172098,244.41448069998296,[-0.106],[0.12],[1],[0],[0],[1.4963948999647982],['target'],548267,001,2024-10-09_15h10.17.487,untitled,2024.1.5,None,2024-10-09 15h10.20.278976 +0530,
120,0,120,0,244.4941718999762,,244.42125819996,10,244.4941718999762,244.4941718999762,0.05097630003001541,245.76443309994647,[-0.248],[-0.356],[1],[0],[0],[1.2927987999864854],['target'],548267,001,2024-10-09_15h10.17.487,untitled,2024.1.5,None,2024-10-09 15h10.20.278976 +0530,
121,0,121,0,245.82756129995687,,245.77113419998204,5,245.82756129995687,245.82756129995687,0.03238970000529662,247.94764519995078,[0.44],[0.098],[1],[0],[0],[2.1447292999946512],['target'],548267,001,2024-10-09_15h10.17.487,untitled,2024.1.5,None,2024-10-09 15h10.20.278976 +0530,
122,0,122,0,248.0108809999656,,247.9548485999694,10,248.0108809999656,248.0108809999656,0.036049599992111325,249.41485279996414,[0.23],[0.084],[1],[0],[0],[1.424464599986095],['target'],548267,001,2024-10-09_15h10.17.487,untitled,2024.1.5,None,2024-10-09 15h10.20.278976 +0530,
123,0,123,0,249.46080299996538,,249.42144269996788,5,249.46080299996538,249.46080299996538,0.027611500001512468,250.7649781999644,[0.206],[-0.194],[1],[0],[0],[1.3164509999915026],['target'],548267,001,2024-10-09_15h10.17.487,untitled,2024.1.5,None,2024-10-09 15h10.20.278976 +0530,
124,0,124,0,250.82793219998712,,250.77272849995643,10,250.82793219998712,250.82793219998712,0.03689019999001175,252.16332599997986,[0.324],[0.008],[1],[0],[0],[1.3543872999725863],['target'],548267,001,2024-10-09_15h10.17.487,untitled,2024.1.5,None,2024-10-09 15h10.20.278976 +0530,
125,0,125,0,252.2278105999576,,252.17027689999668,5,252.2278105999576,252.2278105999576,0.032302499981597066,253.91509229998337,[-0.3],[0.08],[1],[0],[0],[1.7131545000011101],['target'],548267,001,2024-10-09_15h10.17.487,untitled,2024.1.5,None,2024-10-09 15h10.20.278976 +0530,
126,0,126,0,253.97759509994648,,253.92193069995847,10,253.97759509994648,253.97759509994648,0.037873499968554825,255.8476163999876,[0.188],[-0.302],[1],[0],[0],[1.8884175999555737],['target'],548267,001,2024-10-09_15h10.17.487,untitled,2024.1.5,None,2024-10-09 15h10.20.278976 +0530,
127,0,127,0,255.92805499996757,,255.85444379999535,10,255.92805499996757,255.92805499996757,0.04985870001837611,257.6475404999801,[-0.182],[-0.348],[1],[0],[0],[1.743820899981074],['target'],548267,001,2024-10-09_15h10.17.487,untitled,2024.1.5,None,2024-10-09 15h10.20.278976 +0530,
128,0,128,0,257.72767669998575,,257.6545798999723,10,257.72767669998575,257.72767669998575,0.049410699983127415,259.03166479995707,[-0.114],[-0.166],[1],[0],[0],[1.3283869000151753],['target'],548267,001,2024-10-09_15h10.17.487,untitled,2024.1.5,None,2024-10-09 15h10.20.278976 +0530,
129,0,129,0,259.09440979996,,259.038966299966,5,259.09440979996,259.09440979996,0.03125860000727698,260.46570179995615,[-0.086],[0.17],[1],[0],[0],[1.3964762999676168],['target'],548267,001,2024-10-09_15h10.17.487,untitled,2024.1.5,None,2024-10-09 15h10.20.278976 +0530,
130,0,130,0,260.52794229995925,,260.47295259998646,5,260.52794229995925,260.52794229995925,0.03494990000035614,261.7316379999975,[-0.344],[-0.386],[1],[0],[0],[1.2245932000223547],['target'],548267,001,2024-10-09_15h10.17.487,untitled,2024.1.5,None,2024-10-09 15h10.20.278976 +0530,
131,0,131,0,261.8452389999875,,261.73945339996135,10,261.8452389999875,261.8452389999875,0.0670481999986805,264.1806441999506,[0.47],[0.412],[1],[0],[0],[2.3745449000271037],['target'],548267,001,2024-10-09_15h10.17.487,untitled,2024.1.5,None,2024-10-09 15h10.20.278976 +0530,
132,0,132,0,264.27856119995704,,264.1875242999522,10,264.27856119995704,264.27856119995704,0.059113900002557784,266.1814149999991,[-0.244],[-0.324],[1],[0],[0],[1.935408000019379],['target'],548267,001,2024-10-09_15h10.17.487,untitled,2024.1.5,None,2024-10-09 15h10.20.278976 +0530,
133,0,133,0,266.22757349995663,,266.188797699986,5,266.22757349995663,266.22757349995663,0.029551000043284148,268.55065019999165,[0.326],[0.094],[1],[0],[0],[2.333229999989271],['target'],548267,001,2024-10-09_15h10.17.487,untitled,2024.1.5,None,2024-10-09 15h10.20.278976 +0530,
134,0,134,0,268.64476289995946,,268.55812319996767,10,268.64476289995946,268.64476289995946,0.059734800015576184,271.5805685999803,[0.124],[-0.428],[1],[0],[0],[2.9635457000113092],['target'],548267,001,2024-10-09_15h10.17.487,untitled,2024.1.5,None,2024-10-09 15h10.20.278976 +0530,
135,0,135,0,271.6276278999867,,271.58779239997966,5,271.6276278999867,271.6276278999867,0.031105200003366917,273.5316336999531,[-0.064],[-0.138],[1],[0],[0],[1.9134488999843597],['target'],548267,001,2024-10-09_15h10.17.487,untitled,2024.1.5,None,2024-10-09 15h10.20.278976 +0530,
136,0,136,0,273.5953036999563,,273.53922739997506,5,273.5953036999563,273.5953036999563,0.03107219998491928,275.6328672999516,[0.164],[-0.298],[1],[0],[0],[2.063287400000263],['target'],548267,001,2024-10-09_15h10.17.487,untitled,2024.1.5,None,2024-10-09 15h10.20.278976 +0530,
137,0,137,0,275.6947611999931,,275.6395537999924,5,275.6947611999931,275.6947611999931,0.030989599996246397,277.648178799951,[0.03],[-0.174],[1],[0],[0],[1.9785651999991387],['target'],548267,001,2024-10-09_15h10.17.487,untitled,2024.1.5,None,2024-10-09 15h10.20.278976 +0530,
138,0,138,0,277.71166359999916,,277.65461549995234,5,277.71166359999916,277.71166359999916,0.031090900010894984,279.11385339999106,[-0.136],[0.122],[1],[0],[0],[1.4287268000189215],['target'],548267,001,2024-10-09_15h10.17.487,untitled,2024.1.5,None,2024-10-09 15h10.20.278976 +0530,
139,0,139,0,279.17763669998385,,279.1210608999827,10,279.17763669998385,279.17763669998385,0.03797230002237484,280.6968904999667,[0.1],[-0.056],[1],[0],[0],[1.5387495000031777],['target'],548267,001,2024-10-09_15h10.17.487,untitled,2024.1.5,None,2024-10-09 15h10.20.278976 +0530,
140,0,140,0,280.74432759999763,,280.70460189995356,5,280.74432759999763,280.74432759999763,0.0330876000225544,282.247975199949,[-0.202],[-0.33],[1],[0],[0],[1.5115125000011176],['target'],548267,001,2024-10-09_15h10.17.487,untitled,2024.1.5,None,2024-10-09 15h10.20.278976 +0530,
141,0,141,0,282.32778589997906,,282.25421499996446,10,282.32778589997906,282.32778589997906,0.04893739998806268,284.098015399999,[0.42],[0.002],[1],[0],[0],[1.7953025000169873],['target'],548267,001,2024-10-09_15h10.17.487,untitled,2024.1.5,None,2024-10-09 15h10.20.278976 +0530,
142,0,142,0,284.19527999998536,,284.1049512999598,10,284.19527999998536,284.19527999998536,0.05997430003480986,285.83057759999065,[-0.022],[-0.268],[1],[0],[0],[1.6663140999735333],['target'],548267,001,2024-10-09_15h10.17.487,untitled,2024.1.5,None,2024-10-09 15h10.20.278976 +0530,
143,0,143,0,285.8945226999931,,285.83737589995144,10,285.8945226999931,285.8945226999931,0.041275199968367815,287.39834499999415,[-0.252],[0.082],[1],[0],[0],[1.5203265000018291],['target'],548267,001,2024-10-09_15h10.17.487,untitled,2024.1.5,None,2024-10-09 15h10.20.278976 +0530,
144,0,144,0,287.44465469999705,,287.40540049999254,5,287.44465469999705,287.44465469999705,0.025080999999772757,288.7152102999971,[-0.354],[0.224],[1],[0],[0],[1.2853152999887243],['target'],548267,001,2024-10-09_15h10.17.487,untitled,2024.1.5,None,2024-10-09 15h10.20.278976 +0530,
145,0,145,0,288.77836869994644,,288.7236139999586,5,288.77836869994644,288.77836869994644,0.03497609996702522,290.21531859994866,[-0.272],[0.372],[1],[0],[0],[1.4577562999911606],['target'],548267,001,2024-10-09_15h10.17.487,untitled,2024.1.5,None,2024-10-09 15h10.20.278976 +0530,
146,0,146,0,290.32731009996496,,290.22255129995756,10,290.32731009996496,290.32731009996496,0.06817859999136999,292.84911379998084,[-0.446],[-0.204],[1],[0],[0],[2.5591267000418156],['target'],548267,001,2024-10-09_15h10.17.487,untitled,2024.1.5,None,2024-10-09 15h10.20.278976 +0530,
147,0,147,0,292.9118224999984,,292.8555851999554,5,292.9118224999984,292.9118224999984,0.030244600027799606,294.3329077999806,[0.068],[0.078],[1],[0],[0],[1.447762900032103],['target'],548267,001,2024-10-09_15h10.17.487,untitled,2024.1.5,None,2024-10-09 15h10.20.278976 +0530,
148,0,148,0,294.42863929999294,,294.34058929997263,10,294.42863929999294,294.42863929999294,0.05894739995710552,295.9316550999647,[-0.336],[-0.442],[1],[0],[0],[1.53270069998689],['target'],548267,001,2024-10-09_15h10.17.487,untitled,2024.1.5,None,2024-10-09 15h10.20.278976 +0530,
149,0,149,0,296.01091419998556,,295.93829439999536,10,296.01091419998556,296.01091419998556,0.04673529998399317,297.61432019999484,[-0.228],[-0.356],[1],[0],[0],[1.6300271999789402],['target'],548267,001,2024-10-09_15h10.17.487,untitled,2024.1.5,None,2024-10-09 15h10.20.278976 +0530,
150,0,150,0,297.71161679999204,,297.62089779996313,10,297.71161679999204,297.71161679999204,0.059028000046964735,299.2483127999585,[-0.17],[-0.01],[1],[0],[0],[1.5689964999910444],['target'],548267,001,2024-10-09_15h10.17.487,untitled,2024.1.5,None,2024-10-09 15h10.20.278976 +0530,
151,0,151,0,299.29438829998253,,299.255375299952,5,299.29438829998253,299.29438829998253,0.025945300003513694,300.7481992999674,[-0.014],[0.14],[1],[0],[0],[1.4677592000225559],['target'],548267,001,2024-10-09_15h10.17.487,untitled,2024.1.5,None,2024-10-09 15h10.20.278976 +0530,
152,0,152,0,300.81135389994597,,300.75554769998416,5,300.81135389994597,300.81135389994597,0.03393570001935586,304.8476166999899,[0.114],[-0.412],[1],[0],[0],[4.058998900000006],['target'],548267,001,2024-10-09_15h10.17.487,untitled,2024.1.5,None,2024-10-09 15h10.20.278976 +0530,
153,0,153,0,304.9447253999533,,304.85476539999945,10,304.9447253999533,304.9447253999533,0.0663118000375107,306.78045319998637,[0.276],[-0.04],[1],[0],[0],[1.8602989000501111],['target'],548267,001,2024-10-09_15h10.17.487,untitled,2024.1.5,None,2024-10-09 15h10.20.278976 +0530,
154,0,154,0,306.8444596999907,,306.7871300999541,10,306.8444596999907,306.8444596999907,0.03399890003493056,308.3149554999545,[0.052],[0.188],[1],[0],[0],[1.494439699978102],['target'],548267,001,2024-10-09_15h10.17.487,untitled,2024.1.5,None,2024-10-09 15h10.20.278976 +0530,
155,0,155,0,308.3788096999633,,308.32178739999654,5,308.3788096999633,308.3788096999633,0.031609300000127405,310.5145910999854,[0.208],[0.474],[1],[0],[0],[2.1620641000336036],['target'],548267,001,2024-10-09_15h10.17.487,untitled,2024.1.5,None,2024-10-09 15h10.20.278976 +0530,
156,0,156,0,310.57793489994947,,310.5206002999912,10,310.57793489994947,310.57793489994947,0.044182099984027445,312.69808049994754,[-0.374],[0.06],[1],[0],[0],[2.133780400035903],['target'],548267,001,2024-10-09_15h10.17.487,untitled,2024.1.5,None,2024-10-09 15h10.20.278976 +0530,
157,0,157,0,312.761078099953,,312.70463369996287,5,312.761078099953,312.761078099953,0.03133189998334274,314.6654608999961,[-0.462],[0.406],[1],[0],[0],[1.9301664999802597],['target'],548267,001,2024-10-09_15h10.17.487,untitled,2024.1.5,None,2024-10-09 15h10.20.278976 +0530,
158,0,158,0,314.7446313999826,,314.6721686999663,10,314.7446313999826,314.7446313999826,0.0573924999916926,316.3312589999987,[0.022],[0.236],[1],[0],[0],[1.6023459000280127],['target'],548267,001,2024-10-09_15h10.17.487,untitled,2024.1.5,None,2024-10-09 15h10.20.278976 +0530,
159,0,159,0,316.41131389996735,,316.33836529997643,10,316.41131389996735,316.41131389996735,0.04662489995826036,318.11416389996884,[-0.442],[-0.464],[1],[0],[0],[1.729837899969425],['target'],548267,001,2024-10-09_15h10.17.487,untitled,2024.1.5,None,2024-10-09 15h10.20.278976 +0530,
160,0,160,0,318.1619168999605,,318.1211542999954,5,318.1619168999605,318.1619168999605,0.027928999974392354,320.26428649999434,[0.13],[0.12],[1],[0],[0],[2.1159901000210084],['target'],548267,001,2024-10-09_15h10.17.487,untitled,2024.1.5,None,2024-10-09 15h10.20.278976 +0530,
161,0,161,0,320.3276721999864,,320.2716695999843,5,320.3276721999864,320.3276721999864,0.03604169999016449,322.3490579999634,[-0.308],[-0.402],[1],[0],[0],[2.042077000020072],['target'],548267,001,2024-10-09_15h10.17.487,untitled,2024.1.5,None,2024-10-09 15h10.20.278976 +0530,
162,0,162,0,322.41210019995924,,322.35552789998474,5,322.41210019995924,322.41210019995924,0.030917399970348924,323.9817468999536,[-0.01],[0.072],[1],[0],[0],[1.595861999958288],['target'],548267,001,2024-10-09_15h10.17.487,untitled,2024.1.5,None,2024-10-09 15h10.20.278976 +0530,
163,0,163,0,324.0277949999436,,323.9883243999793,5,324.0277949999436,324.0277949999436,0.017054399999324232,325.7159655999858,[-0.382],[-0.178],[1],[0],[0],[1.7112495999899693],['target'],548267,001,2024-10-09_15h10.17.487,untitled,2024.1.5,None,2024-10-09 15h10.20.278976 +0530,
164,0,164,0,325.81190789997345,,325.72398339997744,10,325.81190789997345,325.81190789997345,0.0599447000422515,327.5151589999441,[0.188],[-0.014],[1],[0],[0],[1.7322313000331633],['target'],548267,001,2024-10-09_15h10.17.487,untitled,2024.1.5,None,2024-10-09 15h10.20.278976 +0530,
165,0,165,0,327.5946073999512,,327.5220724999672,10,327.5946073999512,327.5946073999512,0.050240700016729534,329.36339989997214,[0.43],[-0.272],[1],[0],[0],[1.7918650999781676],['target'],548267,001,2024-10-09_15h10.17.487,untitled,2024.1.5,None,2024-10-09 15h10.20.278976 +0530,
166,0,166,0,329.4277622999507,,329.37029649998294,10,329.4277622999507,329.4277622999507,0.03821510000852868,332.16499749996,[0.042],[0.482],[1],[0],[0],[2.7570859999977984],['target'],548267,001,2024-10-09_15h10.17.487,untitled,2024.1.5,None,2024-10-09 15h10.20.278976 +0530,
167,0,167,0,332.24452649999876,,332.172003899992,10,332.24452649999876,332.24452649999876,0.05074229999445379,334.01491359999636,[-0.128],[-0.26],[1],[0],[0],[1.7926905000349507],['target'],548267,001,2024-10-09_15h10.17.487,untitled,2024.1.5,None,2024-10-09 15h10.20.278976 +0530,
168,0,168,0,334.0788648999878,,334.0214591999538,5,334.0788648999878,334.0788648999878,0.03005719999782741,335.798955199949,[0.3],[-0.022],[1],[0],[0],[1.7482136000180617],['target'],548267,001,2024-10-09_15h10.17.487,untitled,2024.1.5,None,2024-10-09 15h10.20.278976 +0530,
169,0,169,0,335.8953533999738,,335.8061761999852,10,335.8953533999738,335.8953533999738,0.0628230000147596,337.26453199994285,[0.404],[-0.28],[1],[0],[0],[1.3965226000291295],['target'],548267,001,2024-10-09_15h10.17.487,untitled,2024.1.5,None,2024-10-09 15h10.20.278976 +0530,
170,0,170,0,337.3443359999801,,337.27104209997924,10,337.3443359999801,337.3443359999801,0.05070069996872917,339.1477939999895,[-0.068],[-0.324],[1],[0],[0],[1.8266006999765523],['target'],548267,001,2024-10-09_15h10.17.487,untitled,2024.1.5,None,2024-10-09 15h10.20.278976 +0530,
171,0,171,0,339.1945310999872,,339.1547330999747,5,339.1945310999872,339.1945310999872,0.02604080003220588,340.982348199992,[-0.018],[0.084],[1],[0],[0],[1.8025549000012688],['target'],548267,001,2024-10-09_15h10.17.487,untitled,2024.1.5,None,2024-10-09 15h10.20.278976 +0530,
172,0,172,0,341.0455324999639,,340.98982179997256,5,341.0455324999639,341.0455324999639,0.034680399985518306,342.6804155999562,[0.456],[-0.004],[1],[0],[0],[1.6570900999940932],['target'],548267,001,2024-10-09_15h10.17.487,untitled,2024.1.5,None,2024-10-09 15h10.20.278976 +0530,
173,0,173,0,342.7280840999447,,342.6827251999639,5,342.7280840999447,342.7280840999447,0.024915900023188442,344.3635164999869,[0.492],[-0.148],[1],[0],[0],[1.6557335000252351],['target'],548267,001,2024-10-09_15h10.17.487,untitled,2024.1.5,None,2024-10-09 15h10.20.278976 +0530,
174,0,174,0,344.4614197999472,,344.3711301999865,10,344.4614197999472,344.4614197999472,0.057829400000628084,346.0652082999586,[-0.222],[-0.478],[1],[0],[0],[1.6369322999962606],['target'],548267,001,2024-10-09_15h10.17.487,untitled,2024.1.5,None,2024-10-09 15h10.20.278976 +0530,
175,0,175,0,346.1444926999975,,346.07186859997455,10,346.1444926999975,346.1444926999975,0.0597014999948442,347.4140269999625,[-0.098],[-0.048],[1],[0],[0],[1.2835099000367336],['target'],548267,001,2024-10-09_15h10.17.487,untitled,2024.1.5,None,2024-10-09 15h10.20.278976 +0530,
176,0,176,0,347.4448700999492,,347.41755459998967,5,347.4448700999492,347.4448700999492,0.015147499972954392,348.84698599996045,[-0.296],[0.266],[1],[0],[0],[1.4145414999802597],['target'],548267,001,2024-10-09_15h10.17.487,untitled,2024.1.5,None,2024-10-09 15h10.20.278976 +0530,
177,0,177,0,348.8775846999488,,348.8497875999892,5,348.8775846999488,348.8775846999488,0.017214299994520843,350.3800433999859,[-0.208],[-0.088],[1],[0],[0],[1.513191399979405],['target'],548267,001,2024-10-09_15h10.17.487,untitled,2024.1.5,None,2024-10-09 15h10.20.278976 +0530,
178,0,178,0,350.42800359998364,,350.3824127999833,10,350.42800359998364,350.42800359998364,0.023179899959359318,351.8461224999628,[-0.428],[0.224],[1],[0],[0],[1.4406191000016406],['target'],548267,001,2024-10-09_15h10.17.487,untitled,2024.1.5,None,2024-10-09 15h10.20.278976 +0530,
179,0,179,0,351.8774599999888,,351.84913659997983,5,351.8774599999888,351.8774599999888,0.012207499996293336,353.8472003999632,[-0.324],[0.17],[1],[0],[0],[1.9856868999777362],['target'],548267,001,2024-10-09_15h10.17.487,untitled,2024.1.5,None,2024-10-09 15h10.20.278976 +0530,
180,0,180,0,353.8943223999813,,353.8546536999638,5,353.8943223999813,353.8943223999813,0.026223299966659397,356.08102539996617,[0.324],[-0.45],[1],[0],[0],[2.2009851000038907],['target'],548267,001,2024-10-09_15h10.17.487,untitled,2024.1.5,None,2024-10-09 15h10.20.278976 +0530,
181,0,181,0,356.1444605999859,,356.0886998999631,5,356.1444605999859,356.1444605999859,0.030295000004116446,357.9974998999969,[0.028],[-0.196],[1],[0],[0],[1.879318699997384],['target'],548267,001,2024-10-09_15h10.17.487,untitled,2024.1.5,None,2024-10-09 15h10.20.278976 +0530,
182,0,182,0,358.09544529998675,,358.00505669997074,10,358.09544529998675,358.09544529998675,0.06032330001471564,359.8309018999571,[0.406],[-0.096],[1],[0],[0],[1.7663207999430597],['target'],548267,001,2024-10-09_15h10.17.487,untitled,2024.1.5,None,2024-10-09 15h10.20.278976 +0530,
183,0,183,0,359.89534219994675,,359.8376432999503,5,359.89534219994675,359.89534219994675,0.031784299993887544,361.39787489996525,[0.076],[-0.108],[1],[0],[0],[1.5291549999965355],['target'],548267,001,2024-10-09_15h10.17.487,untitled,2024.1.5,None,2024-10-09 15h10.20.278976 +0530,
184,0,184,0,361.4621526999981,,361.4061622999725,5,361.4621526999981,361.4621526999981,0.03388980001909658,363.24910589994397,[-0.058],[0.468],[1],[0],[0],[1.810184300004039],['target'],548267,001,2024-10-09_15h10.17.487,untitled,2024.1.5,None,2024-10-09 15h10.20.278976 +0530,
185,0,185,0,363.32786459999625,,363.25552859995514,10,363.32786459999625,363.32786459999625,0.047223999979905784,365.0974921999732,[0.386],[0.014],[1],[0],[0],[1.7951877000159584],['target'],548267,001,2024-10-09_15h10.17.487,untitled,2024.1.5,None,2024-10-09 15h10.20.278976 +0530,
186,0,186,0,365.19515479996335,,365.1043251999654,10,365.19515479996335,365.19515479996335,0.06243039999390021,366.6645550999674,[0.028],[0.228],[1],[0],[0],[1.4983441000222228],['target'],548267,001,2024-10-09_15h10.17.487,untitled,2024.1.5,None,2024-10-09 15h10.20.278976 +0530,
187,0,187,0,366.7612555999658,,366.67142669996247,10,366.7612555999658,366.7612555999658,0.06263629999011755,368.0310872999835,[-0.364],[-0.316],[1],[0],[0],[1.2978517999872565],['target'],548267,001,2024-10-09_15h10.17.487,untitled,2024.1.5,None,2024-10-09 15h10.20.278976 +0530,
188,0,188,0,368.0953126999666,,368.0379206999787,5,368.0953126999666,368.0953126999666,0.03491270000813529,369.4318387999665,[-0.154],[0.014],[1],[0],[0],[1.3600921000470407],['target'],548267,001,2024-10-09_15h10.17.487,untitled,2024.1.5,None,2024-10-09 15h10.20.278976 +0530,
189,0,189,0,369.5280466999975,,369.4390421999851,10,369.5280466999975,369.5280466999975,0.06452509999508038,370.8474284999538,[-0.36],[0.08],[1],[0],[0],[1.3444744000444189],['target'],548267,001,2024-10-09_15h10.17.487,untitled,2024.1.5,None,2024-10-09 15h10.20.278976 +0530,
190,0,190,0,370.89498779998394,,370.85408649995225,5,370.89498779998394,370.89498779998394,0.031044499948620796,372.2993320999667,[-0.42],[0.226],[1],[0],[0],[1.4146644999855198],['target'],548267,001,2024-10-09_15h10.17.487,untitled,2024.1.5,None,2024-10-09 15h10.20.278976 +0530,
191,0,191,0,372.36162729997886,,372.30608879996,10,372.36162729997886,372.36162729997886,0.03405349998502061,374.09834429994226,[0.456],[0.348],[1],[0],[0],[1.758737199997995],['target'],548267,001,2024-10-09_15h10.17.487,untitled,2024.1.5,None,2024-10-09 15h10.20.278976 +0530,
192,0,192,0,374.1450396999717,,374.10558369994396,5,374.1450396999717,374.1450396999717,0.02563180000288412,375.6493344999617,[0.326],[0.204],[1],[0],[0],[1.518832299974747],['target'],548267,001,2024-10-09_15h10.17.487,untitled,2024.1.5,None,2024-10-09 15h10.20.278976 +0530,
193,0,193,0,375.7280084999511,,375.65749669994693,10,375.7280084999511,375.7280084999511,0.043060399999376386,377.3485971999471,[-0.258],[0.06],[1],[0],[0],[1.6486368000041693],['target'],548267,001,2024-10-09_15h10.17.487,untitled,2024.1.5,None,2024-10-09 15h10.20.278976 +0530,
194,0,194,0,377.4112317999825,,377.3556616999558,5,377.4112317999825,377.4112317999825,0.032548600051086396,379.4653631999972,[0.3],[-0.092],[1],[0],[0],[2.0779233999783173],['target'],548267,001,2024-10-09_15h10.17.487,untitled,2024.1.5,None,2024-10-09 15h10.20.278976 +0530,
195,0,195,0,379.52808719995664,,379.47177189996,10,379.52808719995664,379.52808719995664,0.03759129997342825,380.94773219997296,[0.268],[0.34],[1],[0],[0],[1.4388763000024483],['target'],548267,001,2024-10-09_15h10.17.487,untitled,2024.1.5,None,2024-10-09 15h10.20.278976 +0530,
196,0,196,0,381.02799199998844,,380.95498509996105,10,381.02799199998844,381.02799199998844,0.04910750000271946,383.0644168999861,[0.01],[0.084],[1],[0],[0],[2.060966099961661],['target'],548267,001,2024-10-09_15h10.17.487,untitled,2024.1.5,None,2024-10-09 15h10.20.278976 +0530,
197,0,197,0,383.1282924999832,,383.0713318999624,10,383.1282924999832,383.1282924999832,0.03819009999278933,384.6144465999678,[0.036],[0.382],[1],[0],[0],[1.5054920999682508],['target'],548267,001,2024-10-09_15h10.17.487,untitled,2024.1.5,None,2024-10-09 15h10.20.278976 +0530,
198,0,198,0,384.6783617999754,,384.6215917999507,5,384.6783617999754,384.6783617999754,0.03220430004876107,386.1333355999668,[-0.236],[-0.124],[1],[0],[0],[1.4802615000517108],['target'],548267,001,2024-10-09_15h10.17.487,untitled,2024.1.5,None,2024-10-09 15h10.20.278976 +0530,
199,0,199,0,386.1953664999455,,386.13997859996744,5,386.1953664999455,386.1953664999455,0.03000509995035827,387.7658639999572,[-0.056],[0.446],[1],[0],[0],[1.5967231999966316],['target'],548267,001,2024-10-09_15h10.17.487,untitled,2024.1.5,None,2024-10-09 15h10.20.278976 +0530,
