trials.thisRepN,trials.thisTrialN,trials.thisN,trials.thisIndex,thisRow.t,notes,trial.started,num_distr,fixation.started,target.started,mouse.started,trial.stopped,mouse.x,mouse.y,mouse.leftButton,mouse.midButton,mouse.rightButton,mouse.time,mouse.clicked_name,participant,session,date,expName,psychopyVersion,frameRate,expStart,
0,0,0,0,0.09930039994651452,,0.023334299970883876,5,0.09930039994651452,0.09930039994651452,0.06770239997422323,1.6704719999688677,[0.14],[0.378],[1],[0],[0],[1.6019605999463238],['target'],568187,001,2024-10-09_13h19.46.946,untitled,2024.1.5,None,2024-10-09 13h19.49.662859 +0530,
1,0,1,0,1.7321464999695309,,1.6799928999971598,10,1.7321464999695309,1.7321464999695309,0.039255800016690046,3.620014499989338,[-0.148],[0.098],[1],[0],[0],[1.9012820000061765],['target'],568187,001,2024-10-09_13h19.46.946,untitled,2024.1.5,None,2024-10-09 13h19.49.662859 +0530,
2,0,2,0,3.6822331000003032,,3.627143999969121,10,3.6822331000003032,3.6822331000003032,0.04035910003585741,5.3185109999612905,[0.14],[0.07],[1],[0],[0],[1.6521638999693096],['target'],568187,001,2024-10-09_13h19.46.946,untitled,2024.1.5,None,2024-10-09 13h19.49.662859 +0530,
3,0,3,0,5.38218339998275,,5.32235239999136,10,5.38218339998275,5.38218339998275,0.03189739998197183,7.018410699965898,[-0.06],[0.002],[1],[0],[0],[1.6642341999686323],['target'],568187,001,2024-10-09_13h19.46.946,untitled,2024.1.5,None,2024-10-09 13h19.49.662859 +0530,
4,0,4,0,7.065998599980958,,7.023045199981425,5,7.065998599980958,7.065998599980958,0.0231260999571532,9.817679499974474,[0.458],[0.356],[1],[0],[0],[2.7721736000385135],['target'],568187,001,2024-10-09_13h19.46.946,untitled,2024.1.5,None,2024-10-09 13h19.49.662859 +0530,
5,0,5,0,9.8656446999521,,9.81998879997991,10,9.8656446999521,9.8656446999521,0.022747599985450506,12.086184799962211,[-0.486],[0.342],[1],[0],[0],[2.2432373999617994],['target'],568187,001,2024-10-09_13h19.46.946,untitled,2024.1.5,None,2024-10-09 13h19.49.662859 +0530,
6,0,6,0,12.148908499977551,,12.093551199999638,10,12.148908499977551,12.148908499977551,0.03329329995904118,14.752701099961996,[-0.002],[-0.322],[1],[0],[0],[2.626639400026761],['target'],568187,001,2024-10-09_13h19.46.946,untitled,2024.1.5,None,2024-10-09 13h19.49.662859 +0530,
7,0,7,0,14.81542579998495,,14.759775199985597,10,14.81542579998495,14.81542579998495,0.036611000017728657,16.63595119997626,[0.258],[-0.296],[1],[0],[0],[1.8402242999873124],['target'],568187,001,2024-10-09_13h19.46.946,untitled,2024.1.5,None,2024-10-09 13h19.49.662859 +0530,
8,0,8,0,16.699221099959686,,16.643278199946508,10,16.699221099959686,16.699221099959686,0.04208169999765232,18.28561500000069,[-0.114],[-0.118],[1],[0],[0],[1.6009311000234447],['target'],568187,001,2024-10-09_13h19.46.946,untitled,2024.1.5,None,2024-10-09 13h19.49.662859 +0530,
9,0,9,0,18.33229269995354,,18.29368209996028,5,18.33229269995354,18.33229269995354,0.031142199994064867,20.38696119998349,[-0.202],[0.324],[1],[0],[0],[2.063178299984429],['target'],568187,001,2024-10-09_13h19.46.946,untitled,2024.1.5,None,2024-10-09 13h19.49.662859 +0530,
10,0,10,0,20.43224769999506,,20.3928000999731,5,20.43224769999506,20.43224769999506,0.028623699967283756,21.604098899988458,[-0.278],[0.36],[1],[0],[0],[1.1833093999885023],['target'],568187,001,2024-10-09_13h19.46.946,untitled,2024.1.5,None,2024-10-09 13h19.49.662859 +0530,
11,0,11,0,21.66660649998812,,21.610380699974485,5,21.66660649998812,21.66660649998812,0.033498400007374585,23.36797059996752,[0.158],[0.492],[1],[0],[0],[1.7251312999869697],['target'],568187,001,2024-10-09_13h19.46.946,untitled,2024.1.5,None,2024-10-09 13h19.49.662859 +0530,
12,0,12,0,23.415447799954563,,23.372211699956097,5,23.415447799954563,23.415447799954563,0.02042710001114756,25.501835399947595,[0.22],[-0.468],[1],[0],[0],[2.1094674000050873],['target'],568187,001,2024-10-09_13h19.46.946,untitled,2024.1.5,None,2024-10-09 13h19.49.662859 +0530,
13,0,13,0,25.548853999993298,,25.5043690999737,10,25.548853999993298,25.548853999993298,0.026223800028674304,27.183867199986707,[-0.108],[-0.082],[1],[0],[0],[1.653519299987238],['target'],568187,001,2024-10-09_13h19.46.946,untitled,2024.1.5,None,2024-10-09 13h19.49.662859 +0530,
14,0,14,0,27.215451999974903,,27.18630989996018,5,27.215451999974903,27.215451999974903,0.011409000027924776,29.03429199999664,[-0.234],[0.258],[1],[0],[0],[1.8366700999904424],['target'],568187,001,2024-10-09_13h19.46.946,untitled,2024.1.5,None,2024-10-09 13h19.49.662859 +0530,
15,0,15,0,29.082223899953533,,29.03888539999025,10,29.082223899953533,29.082223899953533,0.02456819999497384,30.534430100000463,[0.036],[0.376],[1],[0],[0],[1.4716553000034764],['target'],568187,001,2024-10-09_13h19.46.946,untitled,2024.1.5,None,2024-10-09 13h19.49.662859 +0530,
16,0,16,0,30.56592239998281,,30.53698729997268,5,30.56592239998281,30.56592239998281,0.015321399958338588,32.60195339994971,[0.05],[-0.468],[1],[0],[0],[2.0496746000135317],['target'],568187,001,2024-10-09_13h19.46.946,untitled,2024.1.5,None,2024-10-09 13h19.49.662859 +0530,
17,0,17,0,32.63233239995316,,32.60574109997833,5,32.63233239995316,32.63233239995316,0.013066900020930916,34.43658889998915,[-0.284],[0.204],[1],[0],[0],[1.817572200030554],['target'],568187,001,2024-10-09_13h19.46.946,untitled,2024.1.5,None,2024-10-09 13h19.49.662859 +0530,
18,0,18,0,34.49874670000281,,34.44197489996441,10,34.49874670000281,34.49874670000281,0.04135849996237084,36.11774489999516,[-0.258],[0.256],[1],[0],[0],[1.6352018999750726],['target'],568187,001,2024-10-09_13h19.46.946,untitled,2024.1.5,None,2024-10-09 13h19.49.662859 +0530,
19,0,19,0,36.16526309994515,,36.12006109999493,10,36.16526309994515,36.16526309994515,0.022502899984829128,42.434643299959134,"[0.138, 0.142]","[-0.472, -0.484]","[1, 1]","[0, 0]","[0, 0]","[3.575295399990864, 6.292224599979818]",['target'],568187,001,2024-10-09_13h19.46.946,untitled,2024.1.5,None,2024-10-09 13h19.49.662859 +0530,
20,0,20,0,42.4656118999701,,42.439285499975085,5,42.4656118999701,42.4656118999701,0.015585499990265816,43.95047009998234,[-0.198],[0.254],[1],[0],[0],[1.496273199969437],['target'],568187,001,2024-10-09_13h19.46.946,untitled,2024.1.5,None,2024-10-09 13h19.49.662859 +0530,
21,0,21,0,43.98227239999687,,43.95282690000022,5,43.98227239999687,43.98227239999687,0.011173300037626177,45.86786239995854,[0.198],[-0.342],[1],[0],[0],[1.903974900022149],['target'],568187,001,2024-10-09_13h19.46.946,untitled,2024.1.5,None,2024-10-09 13h19.49.662859 +0530,
22,0,22,0,45.91550319996895,,45.87244259996805,5,45.91550319996895,45.91550319996895,0.019641200022306293,47.58474749996094,[-0.068],[0.352],[1],[0],[0],[1.6930992000270635],['target'],568187,001,2024-10-09_13h19.46.946,untitled,2024.1.5,None,2024-10-09 13h19.49.662859 +0530,
23,0,23,0,47.615705199947115,,47.5893505999702,5,47.615705199947115,47.615705199947115,0.015570899995509535,49.33449769997969,[-0.02],[0.116],[1],[0],[0],[1.730281600030139],['target'],568187,001,2024-10-09_13h19.46.946,untitled,2024.1.5,None,2024-10-09 13h19.49.662859 +0530,
24,0,24,0,49.38228429999435,,49.336881699971855,10,49.38228429999435,49.38228429999435,0.02484209998510778,51.16773139999714,[-0.292],[0.484],[1],[0],[0],[1.8061718000099063],['target'],568187,001,2024-10-09_13h19.46.946,untitled,2024.1.5,None,2024-10-09 13h19.49.662859 +0530,
25,0,25,0,51.198793899966404,,51.17239569994854,5,51.198793899966404,51.198793899966404,0.015527400013525039,52.90166439994937,[-0.132],[0.198],[1],[0],[0],[1.7142880000174046],['target'],568187,001,2024-10-09_13h19.46.946,untitled,2024.1.5,None,2024-10-09 13h19.49.662859 +0530,
26,0,26,0,52.94885669997893,,52.90623699995922,5,52.94885669997893,52.94885669997893,0.017670099972747266,55.201719099946786,[0.438],[0.294],[1],[0],[0],[2.2783388000098057],['target'],568187,001,2024-10-09_13h19.46.946,untitled,2024.1.5,None,2024-10-09 13h19.49.662859 +0530,
27,0,27,0,55.23223879997386,,55.20641679997789,5,55.23223879997386,55.23223879997386,0.018331500003114343,57.05175289994804,[0.082],[0.386],[1],[0],[0],[1.8276594000053592],['target'],568187,001,2024-10-09_13h19.46.946,untitled,2024.1.5,None,2024-10-09 13h19.49.662859 +0530,
28,0,28,0,57.082365299982484,,57.05636999994749,5,57.082365299982484,57.082365299982484,0.013908500026445836,58.51861479994841,[-0.146],[0.378],[1],[0],[0],[1.4484694999991916],['target'],568187,001,2024-10-09_13h19.46.946,untitled,2024.1.5,None,2024-10-09 13h19.49.662859 +0530,
29,0,29,0,58.548746999993455,,58.52175949997036,5,58.548746999993455,58.548746999993455,0.01536129997111857,60.78710639994824,[0.126],[0.346],[1],[0],[0],[2.2498383999918588],['target'],568187,001,2024-10-09_13h19.46.946,untitled,2024.1.5,None,2024-10-09 13h19.49.662859 +0530,
30,0,30,0,60.83222489996115,,60.79379619995598,5,60.83222489996115,60.83222489996115,0.01706969999941066,63.0208209999837,[0.412],[0.412],[1],[0],[0],[2.2106405000085942],['target'],568187,001,2024-10-09_13h19.46.946,untitled,2024.1.5,None,2024-10-09 13h19.49.662859 +0530,
31,0,31,0,63.099000499991234,,63.02737939998042,10,63.099000499991234,63.099000499991234,0.05864000000292435,66.31959929998266,[-0.318],[0.018],[1],[0],[0],[3.2341237000073306],['target'],568187,001,2024-10-09_13h19.46.946,untitled,2024.1.5,None,2024-10-09 13h19.49.662859 +0530,
32,0,32,0,66.38283779995982,,66.32685089996085,5,66.38283779995982,66.38283779995982,0.033560700016096234,70.01818459999049,[-0.26],[-0.046],[1],[0],[0],[3.658469999965746],['target'],568187,001,2024-10-09_13h19.46.946,untitled,2024.1.5,None,2024-10-09 13h19.49.662859 +0530,
33,0,33,0,70.08275109995157,,70.02457829995546,5,70.08275109995157,70.08275109995157,0.03306779998820275,71.83700139995199,[-0.416],[-0.052],[1],[0],[0],[1.7799930000328459],['target'],568187,001,2024-10-09_13h19.46.946,untitled,2024.1.5,None,2024-10-09 13h19.49.662859 +0530,
34,0,34,0,71.91565609996906,,71.84343609999632,10,71.91565609996906,71.91565609996906,0.06147429998964071,73.4859032999957,[0.044],[0.124],[1],[0],[0],[1.5815524999634363],['target'],568187,001,2024-10-09_13h19.46.946,untitled,2024.1.5,None,2024-10-09 13h19.49.662859 +0530,
35,0,35,0,73.54996059997939,,73.49337299994659,5,73.54996059997939,73.54996059997939,0.03464000002713874,75.0865648999461,[0.224],[0.132],[1],[0],[0],[1.5595262999995612],['target'],568187,001,2024-10-09_13h19.46.946,untitled,2024.1.5,None,2024-10-09 13h19.49.662859 +0530,
36,0,36,0,75.18234569998458,,75.09331639995798,10,75.18234569998458,75.18234569998458,0.0641009000246413,78.36923749995185,[0.354],[0.152],[1],[0],[0],[3.2124009000253864],['target'],568187,001,2024-10-09_13h19.46.946,untitled,2024.1.5,None,2024-10-09 13h19.49.662859 +0530,
37,0,37,0,78.46689059998607,,78.37581949995365,10,78.46689059998607,78.46689059998607,0.06274020002456382,81.2026615999639,[-0.132],[-0.392],[1],[0],[0],[2.7648131999885663],['target'],568187,001,2024-10-09_13h19.46.946,untitled,2024.1.5,None,2024-10-09 13h19.49.662859 +0530,
38,0,38,0,81.28227939998033,,81.20923269999912,10,81.28227939998033,81.28227939998033,0.05623560003004968,83.53630019997945,[-0.436],[-0.196],[1],[0],[0],[2.271287299983669],['target'],568187,001,2024-10-09_13h19.46.946,untitled,2024.1.5,None,2024-10-09 13h19.49.662859 +0530,
39,0,39,0,83.65116749994922,,83.54323169996496,10,83.65116749994922,83.65116749994922,0.06397269997978583,85.32048049999867,[-0.506],[0.164],[1],[0],[0],[1.7139192000031471],['target'],568187,001,2024-10-09_13h19.46.946,untitled,2024.1.5,None,2024-10-09 13h19.49.662859 +0530,
40,0,40,0,85.38324979995377,,85.32731169997714,5,85.38324979995377,85.38324979995377,0.03299380000680685,86.92099329998018,[-0.476],[-0.168],[1],[0],[0],[1.5613448999938555],['target'],568187,001,2024-10-09_13h19.46.946,untitled,2024.1.5,None,2024-10-09 13h19.49.662859 +0530,
41,0,41,0,86.96575849998044,,86.9265009999508,5,86.96575849998044,86.96575849998044,0.026924400008283556,89.436681399995,[-0.002],[-0.468],[1],[0],[0],[2.48379940004088],['target'],568187,001,2024-10-09_13h19.46.946,untitled,2024.1.5,None,2024-10-09 13h19.49.662859 +0530,
42,0,42,0,89.51566959999036,,89.44364669994684,10,89.51566959999036,89.51566959999036,0.04892000003019348,91.21794229996158,[0.14],[-0.17],[1],[0],[0],[1.726117999991402],['target'],568187,001,2024-10-09_13h19.46.946,untitled,2024.1.5,None,2024-10-09 13h19.49.662859 +0530,
43,0,43,0,91.29915599996457,,91.2244204999879,10,91.29915599996457,91.29915599996457,0.05966860003536567,93.38531269994564,[0.052],[0.32],[1],[0],[0],[2.1017621000064537],['target'],568187,001,2024-10-09_13h19.46.946,untitled,2024.1.5,None,2024-10-09 13h19.49.662859 +0530,
44,0,44,0,93.44995859998744,,93.39232099999208,5,93.44995859998744,93.44995859998744,0.03311229997780174,95.37138469994534,[0.322],[-0.184],[1],[0],[0],[1.946598600014113],['target'],568187,001,2024-10-09_13h19.46.946,untitled,2024.1.5,None,2024-10-09 13h19.49.662859 +0530,
45,0,45,0,95.53257599996869,,95.37774239998544,10,95.53257599996869,95.53257599996869,0.13488089997554198,97.58481469994877,[0.408],[-0.206],[1],[0],[0],[2.0726665999973193],['target'],568187,001,2024-10-09_13h19.46.946,untitled,2024.1.5,None,2024-10-09 13h19.49.662859 +0530,
46,0,46,0,97.68223549996037,,97.59165659995051,10,97.68223549996037,97.68223549996037,0.06383409997215495,99.0706552999909,[0.316],[-0.136],[1],[0],[0],[1.415759600000456],['target'],568187,001,2024-10-09_13h19.46.946,untitled,2024.1.5,None,2024-10-09 13h19.49.662859 +0530,
47,0,47,0,99.13424379995558,,99.07741059997352,10,99.13424379995558,99.13424379995558,0.04472689999965951,100.63552409998374,[0.354],[0.052],[1],[0],[0],[1.5139576999936253],['target'],568187,001,2024-10-09_13h19.46.946,untitled,2024.1.5,None,2024-10-09 13h19.49.662859 +0530,
48,0,48,0,100.7158638999681,,100.64285639999434,10,100.7158638999681,100.7158638999681,0.060199899948202074,102.43558429996483,[0.308],[-0.116],[1],[0],[0],[1.7332149000139907],['target'],568187,001,2024-10-09_13h19.46.946,untitled,2024.1.5,None,2024-10-09 13h19.49.662859 +0530,
49,0,49,0,102.49973069998669,,102.44262989994604,5,102.49973069998669,102.49973069998669,0.03364139999030158,105.77051329996902,[-0.476],[0.142],[1],[0],[0],[3.294776200025808],['target'],568187,001,2024-10-09_13h19.46.946,untitled,2024.1.5,None,2024-10-09 13h19.49.662859 +0530,
50,0,50,0,105.81598909996683,,105.77690979995532,5,105.81598909996683,105.81598909996683,0.02726750000147149,107.58652829995845,[-0.138],[0.22],[1],[0],[0],[1.7829446999821812],['target'],568187,001,2024-10-09_13h19.46.946,untitled,2024.1.5,None,2024-10-09 13h19.49.662859 +0530,
51,0,51,0,107.64899369998602,,107.59281229996122,10,107.64899369998602,107.64899369998602,0.047252899967134,109.90259639994474,[0.08],[0.166],[1],[0],[0],[2.2630327999941073],['target'],568187,001,2024-10-09_13h19.46.946,untitled,2024.1.5,None,2024-10-09 13h19.49.662859 +0530,
52,0,52,0,109.96662989998003,,109.9097083999659,5,109.96662989998003,109.96662989998003,0.034288300026673824,111.80278929998167,[0.16],[-0.466],[1],[0],[0],[1.8595585000002757],['target'],568187,001,2024-10-09_13h19.46.946,untitled,2024.1.5,None,2024-10-09 13h19.49.662859 +0530,
53,0,53,0,111.86598099995172,,111.80925069999648,10,111.86598099995172,111.86598099995172,0.03680860000895336,113.73546019999776,[-0.012],[0.088],[1],[0],[0],[1.8900901999440975],['target'],568187,001,2024-10-09_13h19.46.946,untitled,2024.1.5,None,2024-10-09 13h19.49.662859 +0530,
54,0,54,0,113.81610099994577,,113.74227229994722,10,113.81610099994577,113.81610099994577,0.04845309996744618,115.45219699997688,[-0.056],[0.134],[1],[0],[0],[1.6621933999704197],['target'],568187,001,2024-10-09_13h19.46.946,untitled,2024.1.5,None,2024-10-09 13h19.49.662859 +0530,
55,0,55,0,115.51624709996395,,115.45941089995904,5,115.51624709996395,115.51624709996395,0.03315209998982027,117.10323969996534,[0.122],[0.036],[1],[0],[0],[1.611707700008992],['target'],568187,001,2024-10-09_13h19.46.946,untitled,2024.1.5,None,2024-10-09 13h19.49.662859 +0530,
56,0,56,0,117.18255279998994,,117.10953309998149,10,117.18255279998994,117.18255279998994,0.06015719997230917,119.30230569996638,[-0.372],[-0.062],[1],[0],[0],[2.133203200006392],['target'],568187,001,2024-10-09_13h19.46.946,untitled,2024.1.5,None,2024-10-09 13h19.49.662859 +0530,
57,0,57,0,119.3999732999946,,119.30861639999785,10,119.3999732999946,119.3999732999946,0.06318190001184121,121.75215199997183,[-0.108],[-0.384],[1],[0],[0],[2.380887300008908],['target'],568187,001,2024-10-09_13h19.46.946,untitled,2024.1.5,None,2024-10-09 13h19.49.662859 +0530,
58,0,58,0,121.84972539998125,,121.75952459999826,10,121.84972539998125,121.84972539998125,0.06786479998845607,123.67014889995335,[0.47],[0.47],[1],[0],[0],[1.8440708999987692],['target'],568187,001,2024-10-09_13h19.46.946,untitled,2024.1.5,None,2024-10-09 13h19.49.662859 +0530,
59,0,59,0,123.6993048999575,,123.67249379999703,5,123.6993048999575,123.6993048999575,0.011939099989831448,125.57038069999544,[-0.456],[0.25],[1],[0],[0],[1.8855463999789208],['target'],568187,001,2024-10-09_13h19.46.946,untitled,2024.1.5,None,2024-10-09 13h19.49.662859 +0530,
60,0,60,0,125.64997479994781,,125.57633219996933,10,125.64997479994781,125.64997479994781,0.05661359999794513,127.96800979995169,[0.43],[-0.42],[1],[0],[0],[2.3356982999830507],['target'],568187,001,2024-10-09_13h19.46.946,untitled,2024.1.5,None,2024-10-09 13h19.49.662859 +0530,
61,0,61,0,128.0325777999824,,127.97474809997948,10,128.0325777999824,128.0325777999824,0.039452800003346056,130.5032583999564,[0.26],[0.454],[1],[0],[0],[2.4896953999996185],['target'],568187,001,2024-10-09_13h19.46.946,untitled,2024.1.5,None,2024-10-09 13h19.49.662859 +0530,
62,0,62,0,130.5827232999727,,130.5116866999888,10,130.5827232999727,130.5827232999727,0.048776499985251576,132.61818549997406,[-0.202],[-0.376],[1],[0],[0],[2.0584788999985904],['target'],568187,001,2024-10-09_13h19.46.946,untitled,2024.1.5,None,2024-10-09 13h19.49.662859 +0530,
63,0,63,0,132.68349029996898,,132.62462719995528,5,132.68349029996898,132.68349029996898,0.03259570000227541,134.28651730000274,[-0.308],[0.024],[1],[0],[0],[1.6300718000275083],['target'],568187,001,2024-10-09_13h19.46.946,untitled,2024.1.5,None,2024-10-09 13h19.49.662859 +0530,
64,0,64,0,134.38287370000035,,134.29296519997297,10,134.38287370000035,134.38287370000035,0.06457649997901171,136.18629709997913,[0.386],[-0.12],[1],[0],[0],[1.8292330999975093],['target'],568187,001,2024-10-09_13h19.46.946,untitled,2024.1.5,None,2024-10-09 13h19.49.662859 +0530,
65,0,65,0,136.23256889998447,,136.193510699959,5,136.23256889998447,136.23256889998447,0.030756199965253472,138.78535169997485,[-0.238],[0.122],[1],[0],[0],[2.5620092999888584],['target'],568187,001,2024-10-09_13h19.46.946,untitled,2024.1.5,None,2024-10-09 13h19.49.662859 +0530,
66,0,66,0,138.88301439996576,,138.79299419996096,10,138.88301439996576,138.88301439996576,0.0656777000403963,141.38520769996103,[0.454],[0.014],[1],[0],[0],[2.5273929000250064],['target'],568187,001,2024-10-09_13h19.46.946,untitled,2024.1.5,None,2024-10-09 13h19.49.662859 +0530,
67,0,67,0,141.48292419995414,,141.391688899952,10,141.48292419995414,141.48292419995414,0.062257599958684295,143.9354823999456,[0.186],[0.46],[1],[0],[0],[2.482421000022441],['target'],568187,001,2024-10-09_13h19.46.946,untitled,2024.1.5,None,2024-10-09 13h19.49.662859 +0530,
68,0,68,0,143.98452849994646,,143.93798469996545,10,143.98452849994646,143.98452849994646,0.023347500013187528,146.56882629997563,[-0.308],[0.188],[1],[0],[0],[2.6072717999923043],['target'],568187,001,2024-10-09_13h19.46.946,untitled,2024.1.5,None,2024-10-09 13h19.49.662859 +0530,
69,0,69,0,146.63429769995855,,146.57640539994463,10,146.63429769995855,146.63429769995855,0.038104499981272966,149.11931099998765,[0.488],[0.082],[1],[0],[0],[2.505573700007517],['target'],568187,001,2024-10-09_13h19.46.946,untitled,2024.1.5,None,2024-10-09 13h19.49.662859 +0530,
70,0,70,0,149.18305099999998,,149.12596469995333,5,149.18305099999998,149.18305099999998,0.03458839998347685,151.28925569995772,[0.444],[-0.164],[1],[0],[0],[2.129300000029616],['target'],568187,001,2024-10-09_13h19.46.946,untitled,2024.1.5,None,2024-10-09 13h19.49.662859 +0530,
71,0,71,0,151.35019269998884,,151.29984559997683,5,151.35019269998884,151.35019269998884,0.030977700022049248,153.17117219994543,[0.092],[0.06],[1],[0],[0],[1.840919499984011],['target'],568187,001,2024-10-09_13h19.46.946,untitled,2024.1.5,None,2024-10-09 13h19.49.662859 +0530,
72,0,72,0,153.25047619995894,,153.1774934999994,10,153.25047619995894,153.25047619995894,0.05774890002794564,154.71953949995805,[-0.124],[-0.108],[1],[0],[0],[1.4848471999866888],['target'],568187,001,2024-10-09_13h19.46.946,untitled,2024.1.5,None,2024-10-09 13h19.49.662859 +0530,
73,0,73,0,154.79950559994904,,154.7278454999905,10,154.79950559994904,154.79950559994904,0.04452220001257956,156.5709089000011,[0.42],[0.078],[1],[0],[0],[1.7992044999846257],['target'],568187,001,2024-10-09_13h19.46.946,untitled,2024.1.5,None,2024-10-09 13h19.49.662859 +0530,
74,0,74,0,156.6327260999824,,156.57753879996017,5,156.6327260999824,156.6327260999824,0.031430100032594055,157.9697061999468,[-0.052],[0.154],[1],[0],[0],[1.36170409998158],['target'],568187,001,2024-10-09_13h19.46.946,untitled,2024.1.5,None,2024-10-09 13h19.49.662859 +0530,
75,0,75,0,158.03315229999134,,157.9761215999606,5,158.03315229999134,158.03315229999134,0.03152710001450032,159.4200242999941,[-0.112],[0.262],[1],[0],[0],[1.412785199994687],['target'],568187,001,2024-10-09_13h19.46.946,untitled,2024.1.5,None,2024-10-09 13h19.49.662859 +0530,
76,0,76,0,159.48333239997737,,159.425919399946,5,159.48333239997737,159.48333239997737,0.03086210001492873,161.05179319996387,[0.446],[-0.436],[1],[0],[0],[1.5957959000370465],['target'],568187,001,2024-10-09_13h19.46.946,untitled,2024.1.5,None,2024-10-09 13h19.49.662859 +0530,
77,0,77,0,161.08268749999115,,161.05408429994714,5,161.08268749999115,161.08268749999115,0.01099929999327287,164.30344659998082,[0.256],[-0.414],[1],[0],[0],[3.238009900029283],['target'],568187,001,2024-10-09_13h19.46.946,untitled,2024.1.5,None,2024-10-09 13h19.49.662859 +0530,
78,0,78,0,164.3657786999829,,164.31055639998522,10,164.3657786999829,164.3657786999829,0.03523360000690445,166.00237549998565,[-0.392],[-0.292],[1],[0],[0],[1.6570266000344418],['target'],568187,001,2024-10-09_13h19.46.946,untitled,2024.1.5,None,2024-10-09 13h19.49.662859 +0530,
79,0,79,0,166.06596399995033,,166.00942109996686,10,166.06596399995033,166.06596399995033,0.04404250002698973,168.36926759994822,[-0.114],[0.42],[1],[0],[0],[2.3163270999793895],['target'],568187,001,2024-10-09_13h19.46.946,untitled,2024.1.5,None,2024-10-09 13h19.49.662859 +0530,
80,0,80,0,168.43333439994603,,168.37620499997865,5,168.43333439994603,168.43333439994603,0.033157499972730875,170.92028449999634,[0.038],[-0.378],[1],[0],[0],[2.5116939999861643],['target'],568187,001,2024-10-09_13h19.46.946,untitled,2024.1.5,None,2024-10-09 13h19.49.662859 +0530,
81,0,81,0,170.98307399998885,,170.92662899999414,5,170.98307399998885,170.98307399998885,0.03137139999307692,172.60356229997706,[-0.366],[0.152],[1],[0],[0],[1.64615089999279],['target'],568187,001,2024-10-09_13h19.46.946,untitled,2024.1.5,None,2024-10-09 13h19.49.662859 +0530,
82,0,82,0,172.6658494999865,,172.6103081999463,10,172.6658494999865,172.6658494999865,0.04289059998700395,174.67015139997238,[-0.032],[-0.48],[1],[0],[0],[2.017384700011462],['target'],568187,001,2024-10-09_13h19.46.946,untitled,2024.1.5,None,2024-10-09 13h19.49.662859 +0530,
83,0,83,0,174.76668399997288,,174.67722019995563,10,174.76668399997288,174.76668399997288,0.06149890000233427,176.53640549996635,[0.284],[0.388],[1],[0],[0],[1.7983204000047408],['target'],568187,001,2024-10-09_13h19.46.946,untitled,2024.1.5,None,2024-10-09 13h19.49.662859 +0530,
84,0,84,0,176.60011809994467,,176.54335389996413,5,176.60011809994467,176.60011809994467,0.03376729995943606,178.20436079998035,[0.446],[0.044],[1],[0],[0],[1.6280676999595016],['target'],568187,001,2024-10-09_13h19.46.946,untitled,2024.1.5,None,2024-10-09 13h19.49.662859 +0530,
85,0,85,0,178.2658376999898,,178.21094329998596,5,178.2658376999898,178.2658376999898,0.0369897999917157,179.8361930999672,[-0.074],[-0.182],[1],[0],[0],[1.5889401999884285],['target'],568187,001,2024-10-09_13h19.46.946,untitled,2024.1.5,None,2024-10-09 13h19.49.662859 +0530,
86,0,86,0,179.88245069998084,,179.84262879996095,5,179.88245069998084,179.88245069998084,0.03011380002135411,181.4194791999762,[0.226],[0.052],[1],[0],[0],[1.5467120000394061],['target'],568187,001,2024-10-09_13h19.46.946,untitled,2024.1.5,None,2024-10-09 13h19.49.662859 +0530,
87,0,87,0,181.49922060000245,,181.42653249995783,10,181.49922060000245,181.49922060000245,0.04538839997258037,183.21850749995792,[0.444],[0.236],[1],[0],[0],[1.7472151999827474],['target'],568187,001,2024-10-09_13h19.46.946,untitled,2024.1.5,None,2024-10-09 13h19.49.662859 +0530,
88,0,88,0,183.2830946999602,,183.22490699996706,5,183.2830946999602,183.2830946999602,0.03350399999180809,185.15362249995815,[0.114],[-0.316],[1],[0],[0],[1.895799399993848],['target'],568187,001,2024-10-09_13h19.46.946,untitled,2024.1.5,None,2024-10-09 13h19.49.662859 +0530,
89,0,89,0,185.21684259996982,,185.1599502999452,5,185.21684259996982,185.21684259996982,0.03289129998302087,186.73690879996866,[0.094],[0.052],[1],[0],[0],[1.544553400017321],['target'],568187,001,2024-10-09_13h19.46.946,untitled,2024.1.5,None,2024-10-09 13h19.49.662859 +0530,
90,0,90,0,186.8003980999929,,186.74359629995888,5,186.8003980999929,186.8003980999929,0.031701100000645965,188.5033336999477,[0.272],[0.228],[1],[0],[0],[1.7286523000220768],['target'],568187,001,2024-10-09_13h19.46.946,untitled,2024.1.5,None,2024-10-09 13h19.49.662859 +0530,
91,0,91,0,188.56658279994735,,188.50996929995017,5,188.56658279994735,188.56658279994735,0.03296119999140501,190.78639649995603,[0.492],[-0.1],[1],[0],[0],[2.2443734999978915],['target'],568187,001,2024-10-09_13h19.46.946,untitled,2024.1.5,None,2024-10-09 13h19.49.662859 +0530,
92,0,92,0,190.86579949996667,,190.79287399997702,10,190.86579949996667,190.86579949996667,0.06052260001888499,192.75233359995764,[-0.314],[-0.432],[1],[0],[0],[1.8994282999774441],['target'],568187,001,2024-10-09_13h19.46.946,untitled,2024.1.5,None,2024-10-09 13h19.49.662859 +0530,
93,0,93,0,192.81596839998383,,192.7592468999792,5,192.81596839998383,192.81596839998383,0.03331359999720007,194.40319279994583,[-0.348],[0.238],[1],[0],[0],[1.611393400002271],['target'],568187,001,2024-10-09_13h19.46.946,untitled,2024.1.5,None,2024-10-09 13h19.49.662859 +0530,
94,0,94,0,194.46668729995145,,194.40957839996554,5,194.46668729995145,194.46668729995145,0.03159540001070127,196.1031670999946,[0.156],[0.202],[1],[0],[0],[1.6627305000438355],['target'],568187,001,2024-10-09_13h19.46.946,untitled,2024.1.5,None,2024-10-09 13h19.49.662859 +0530,
95,0,95,0,196.16596119996393,,196.10967869998422,10,196.16596119996393,196.16596119996393,0.03591829998185858,198.15301029995317,[-0.232],[0.466],[1],[0],[0],[2.0079641999909654],['target'],568187,001,2024-10-09_13h19.46.946,untitled,2024.1.5,None,2024-10-09 13h19.49.662859 +0530,
96,0,96,0,198.23260389995994,,198.1598382999655,10,198.23260389995994,198.23260389995994,0.04890759999398142,200.2023302000016,[-0.404],[0.378],[1],[0],[0],[1.9944273000000976],['target'],568187,001,2024-10-09_13h19.46.946,untitled,2024.1.5,None,2024-10-09 13h19.49.662859 +0530,
97,0,97,0,200.30068459996255,,200.2092800999526,10,200.30068459996255,200.30068459996255,0.05990729999030009,202.30201909999596,[-0.282],[0.03],[1],[0],[0],[2.0335683000157587],['target'],568187,001,2024-10-09_13h19.46.946,untitled,2024.1.5,None,2024-10-09 13h19.49.662859 +0530,
98,0,98,0,202.36710209999,,202.30875599995488,5,202.36710209999,202.36710209999,0.03143769997404888,205.7527983999462,[0.388],[-0.136],[1],[0],[0],[3.4132205999922007],['target'],568187,001,2024-10-09_13h19.46.946,untitled,2024.1.5,None,2024-10-09 13h19.49.662859 +0530,
99,0,99,0,205.81631319998996,,205.76059359998908,10,205.81631319998996,205.81631319998996,0.04342900001211092,207.4187003999832,[-0.162],[-0.226],[1],[0],[0],[1.6156225000158884],['target'],568187,001,2024-10-09_13h19.46.946,untitled,2024.1.5,None,2024-10-09 13h19.49.662859 +0530,
100,0,100,0,207.48474970000098,,207.42579819995444,5,207.48474970000098,207.48474970000098,0.03328100004000589,209.28728419996332,[-0.492],[0.1],[1],[0],[0],[1.8289151000208221],['target'],568187,001,2024-10-09_13h19.46.946,untitled,2024.1.5,None,2024-10-09 13h19.49.662859 +0530,
101,0,101,0,209.34990839997772,,209.2940284999786,5,209.34990839997772,209.34990839997772,0.03290950000518933,211.38750389998313,[-0.084],[0.024],[1],[0],[0],[2.061118700017687],['target'],568187,001,2024-10-09_13h19.46.946,untitled,2024.1.5,None,2024-10-09 13h19.49.662859 +0530,
102,0,102,0,211.46584489999805,,211.39417179999873,10,211.46584489999805,211.46584489999805,0.04742310004075989,213.41904859995702,[-0.14],[-0.392],[1],[0],[0],[1.978066999989096],['target'],568187,001,2024-10-09_13h19.46.946,untitled,2024.1.5,None,2024-10-09 13h19.49.662859 +0530,
103,0,103,0,213.4828934999532,,213.42566009995062,5,213.4828934999532,213.4828934999532,0.03288720001000911,215.0203896999592,[-0.436],[-0.202],[1],[0],[0],[1.5625619000056759],['target'],568187,001,2024-10-09_13h19.46.946,untitled,2024.1.5,None,2024-10-09 13h19.49.662859 +0530,
104,0,104,0,215.1167046999908,,215.02621379995253,10,215.1167046999908,215.1167046999908,0.055500300019048154,216.95222039998043,[-0.174],[0.094],[1],[0],[0],[1.8709137000259943],['target'],568187,001,2024-10-09_13h19.46.946,untitled,2024.1.5,None,2024-10-09 13h19.49.662859 +0530,
105,0,105,0,217.0168342999532,,216.95977669995045,5,217.0168342999532,217.0168342999532,0.03384129999903962,218.40268309996463,[-0.414],[0.204],[1],[0],[0],[1.409678400028497],['target'],568187,001,2024-10-09_13h19.46.946,untitled,2024.1.5,None,2024-10-09 13h19.49.662859 +0530,
106,0,106,0,218.46642909996444,,218.40920559997903,5,218.46642909996444,218.46642909996444,0.03246900002704933,220.60387130000163,[0.39],[-0.268],[1],[0],[0],[2.16275499999756],['target'],568187,001,2024-10-09_13h19.46.946,untitled,2024.1.5,None,2024-10-09 13h19.49.662859 +0530,
107,0,107,0,220.66618539998308,,220.610730699962,10,220.66618539998308,220.66618539998308,0.04235330002848059,222.85250290000113,[-0.476],[0.478],[1],[0],[0],[2.19997069996316],['target'],568187,001,2024-10-09_13h19.46.946,untitled,2024.1.5,None,2024-10-09 13h19.49.662859 +0530,
108,0,108,0,222.89930569997523,,222.85969019995537,5,222.89930569997523,222.89930569997523,0.0332483000238426,224.9380616999697,[-0.408],[0.252],[1],[0],[0],[2.045798000006471],['target'],568187,001,2024-10-09_13h19.46.946,untitled,2024.1.5,None,2024-10-09 13h19.49.662859 +0530,
109,0,109,0,224.99986169999465,,224.944414699974,5,224.99986169999465,224.99986169999465,0.03103509999345988,227.00337239995133,[-0.484],[0.242],[1],[0],[0],[2.0286639000405557],['target'],568187,001,2024-10-09_13h19.46.946,untitled,2024.1.5,None,2024-10-09 13h19.49.662859 +0530,
110,0,110,0,227.10022739996202,,227.0103554999805,10,227.10022739996202,227.10022739996202,0.06214729999192059,229.25256599998102,[0.092],[-0.016],[1],[0],[0],[2.1807133000111207],['target'],568187,001,2024-10-09_13h19.46.946,untitled,2024.1.5,None,2024-10-09 13h19.49.662859 +0530,
111,0,111,0,229.31650570000056,,229.25897329999134,5,229.31650570000056,229.31650570000056,0.034344499988947064,231.30385579995345,[0.108],[0.372],[1],[0],[0],[2.011021599988453],['target'],568187,001,2024-10-09_13h19.46.946,untitled,2024.1.5,None,2024-10-09 13h19.49.662859 +0530,
112,0,112,0,231.36659169994527,,231.31057879998116,5,231.36659169994527,231.36659169994527,0.03269919997546822,233.2371831999626,[0.06],[-0.356],[1],[0],[0],[1.894536199979484],['target'],568187,001,2024-10-09_13h19.46.946,untitled,2024.1.5,None,2024-10-09 13h19.49.662859 +0530,
113,0,113,0,233.3001814999734,,233.24384339997778,5,233.3001814999734,233.3001814999734,0.03220730001339689,235.28725619998295,[-0.404],[-0.376],[1],[0],[0],[2.0117330999928527],['target'],568187,001,2024-10-09_13h19.46.946,untitled,2024.1.5,None,2024-10-09 13h19.49.662859 +0530,
114,0,114,0,235.35008169995854,,235.2935200999491,5,235.35008169995854,235.35008169995854,0.03211379999993369,237.55400259996532,[0.362],[-0.104],[1],[0],[0],[2.229029999987688],['target'],568187,001,2024-10-09_13h19.46.946,untitled,2024.1.5,None,2024-10-09 13h19.49.662859 +0530,
115,0,115,0,237.61618969996925,,237.5605033999891,10,237.61618969996925,237.61618969996925,0.0428478000103496,240.08753289998276,[-0.08],[0.448],[1],[0],[0],[2.4848155000363477],['target'],568187,001,2024-10-09_13h19.46.946,untitled,2024.1.5,None,2024-10-09 13h19.49.662859 +0530,
116,0,116,0,240.14995149994502,,240.09393789997557,5,240.14995149994502,240.14995149994502,0.03148740000324324,242.07176529994467,[0.43],[0.464],[1],[0],[0],[1.9469001999823377],['target'],568187,001,2024-10-09_13h19.46.946,untitled,2024.1.5,None,2024-10-09 13h19.49.662859 +0530,
117,0,117,0,242.1328719999874,,242.07850189995952,5,242.1328719999874,242.1328719999874,0.03219790000002831,244.80356390000088,[-0.408],[-0.078],[1],[0],[0],[2.6934512000298128],['target'],568187,001,2024-10-09_13h19.46.946,untitled,2024.1.5,None,2024-10-09 13h19.49.662859 +0530,
118,0,118,0,244.88311709999107,,244.80990349996137,10,244.88311709999107,244.88311709999107,0.0506042999913916,246.536777399946,[-0.38],[-0.27],[1],[0],[0],[1.6767891999916174],['target'],568187,001,2024-10-09_13h19.46.946,untitled,2024.1.5,None,2024-10-09 13h19.49.662859 +0530,
119,0,119,0,246.63282429997344,,246.54361329996027,10,246.63282429997344,246.63282429997344,0.06378880003467202,247.92113899998367,[-0.088],[0.034],[1],[0],[0],[1.3143682000227273],['target'],568187,001,2024-10-09_13h19.46.946,untitled,2024.1.5,None,2024-10-09 13h19.49.662859 +0530,
120,0,120,0,248.0166282999562,,247.92845690000104,10,248.0166282999562,248.0166282999562,0.059537800028920174,249.88591569999699,[0.462],[-0.02],[1],[0],[0],[1.8987074000178836],['target'],568187,001,2024-10-09_13h19.46.946,untitled,2024.1.5,None,2024-10-09 13h19.49.662859 +0530,
121,0,121,0,249.93288219999522,,249.89258970000083,5,249.93288219999522,249.93288219999522,0.030581300030462444,252.15385349997086,[0.15],[0.398],[1],[0],[0],[2.231305599969346],['target'],568187,001,2024-10-09_13h19.46.946,untitled,2024.1.5,None,2024-10-09 13h19.49.662859 +0530,
122,0,122,0,252.23271719994955,,252.1603515999741,10,252.23271719994955,252.23271719994955,0.04871060000732541,253.80328589997953,[-0.19],[0.296],[1],[0],[0],[1.5947685000137426],['target'],568187,001,2024-10-09_13h19.46.946,untitled,2024.1.5,None,2024-10-09 13h19.49.662859 +0530,
123,0,123,0,253.88290939998114,,253.8100976999849,10,253.88290939998114,253.88290939998114,0.04975629999535158,255.73584599996684,[-0.084],[0.212],[1],[0],[0],[1.876703499990981],['target'],568187,001,2024-10-09_13h19.46.946,untitled,2024.1.5,None,2024-10-09 13h19.49.662859 +0530,
124,0,124,0,255.7998647999484,,255.74250619998202,5,255.7998647999484,255.7998647999484,0.03348869999172166,258.1200980999856,[-0.332],[-0.306],[1],[0],[0],[2.3448837000178173],['target'],568187,001,2024-10-09_13h19.46.946,untitled,2024.1.5,None,2024-10-09 13h19.49.662859 +0530,
125,0,125,0,258.1995288999751,,258.1267998999683,10,258.1995288999751,258.1995288999751,0.05223540001315996,260.18655029998627,[0.228],[-0.002],[1],[0],[0],[2.00833209999837],['target'],568187,001,2024-10-09_13h19.46.946,untitled,2024.1.5,None,2024-10-09 13h19.49.662859 +0530,
126,0,126,0,260.2661897999933,,260.1928604999557,10,260.2661897999933,260.2661897999933,0.055710299988277256,262.4199305999791,[0.434],[0.5],[1],[0],[0],[2.171947499969974],['target'],568187,001,2024-10-09_13h19.46.946,untitled,2024.1.5,None,2024-10-09 13h19.49.662859 +0530,
127,0,127,0,262.48271819995716,,262.4269935999764,5,262.48271819995716,262.48271819995716,0.03334250004263595,265.6849866999546,[0.088],[0.136],[1],[0],[0],[3.2257815999910235],['target'],568187,001,2024-10-09_13h19.46.946,untitled,2024.1.5,None,2024-10-09 13h19.49.662859 +0530,
128,0,128,0,265.7328178999596,,265.6875785999582,10,265.7328178999596,265.7328178999596,0.02852230001008138,267.6017983999918,[0.234],[0.002],[1],[0],[0],[1.88574499997776],['target'],568187,001,2024-10-09_13h19.46.946,untitled,2024.1.5,None,2024-10-09 13h19.49.662859 +0530,
129,0,129,0,267.6493365999777,,267.6043277999852,10,267.6493365999777,267.6493365999777,0.022524000029079616,270.0681393999839,[-0.316],[-0.006],[1],[0],[0],[2.441510599979665],['target'],568187,001,2024-10-09_13h19.46.946,untitled,2024.1.5,None,2024-10-09 13h19.49.662859 +0530,
130,0,130,0,270.0993647999712,,270.07055009994656,5,270.0993647999712,270.0993647999712,0.01157279999461025,271.68546549999155,[-0.218],[-0.268],[1],[0],[0],[1.6033628999721259],['target'],568187,001,2024-10-09_13h19.46.946,untitled,2024.1.5,None,2024-10-09 13h19.49.662859 +0530,
131,0,131,0,271.73330349999014,,271.69001469999785,10,271.73330349999014,271.73330349999014,0.02482559997588396,273.53492769994773,[0.254],[-0.162],[1],[0],[0],[1.820551200013142],['target'],568187,001,2024-10-09_13h19.46.946,untitled,2024.1.5,None,2024-10-09 13h19.49.662859 +0530,
132,0,132,0,273.58276669995394,,273.53749550000066,10,273.58276669995394,273.58276669995394,0.024595400027465075,275.8032186999917,[-0.482],[0.248],[1],[0],[0],[2.2408763999701478],['target'],568187,001,2024-10-09_13h19.46.946,untitled,2024.1.5,None,2024-10-09 13h19.49.662859 +0530,
133,0,133,0,275.901007199951,,275.8099269999657,10,275.901007199951,275.901007199951,0.061909699987154454,277.9365990999504,[0.118],[-0.17],[1],[0],[0],[2.064272899995558],['target'],568187,001,2024-10-09_13h19.46.946,untitled,2024.1.5,None,2024-10-09 13h19.49.662859 +0530,
134,0,134,0,277.999951899983,,277.94332119997125,10,277.999951899983,277.999951899983,0.0408624000265263,279.75197729998035,[-0.35],[-0.04],[1],[0],[0],[1.7688270999933593],['target'],568187,001,2024-10-09_13h19.46.946,untitled,2024.1.5,None,2024-10-09 13h19.49.662859 +0530,
135,0,135,0,279.8159797999542,,279.75568149995524,10,279.8159797999542,279.8159797999542,0.032487799995578825,281.7180915999925,[-0.444],[0.154],[1],[0],[0],[1.9300656999694183],['target'],568187,001,2024-10-09_13h19.46.946,untitled,2024.1.5,None,2024-10-09 13h19.49.662859 +0530,
136,0,136,0,281.76613449997967,,281.72052209998947,10,281.76613449997967,281.76613449997967,0.026417799992486835,284.8180172999855,[-0.2],[-0.452],[1],[0],[0],[3.071242699981667],['target'],568187,001,2024-10-09_13h19.46.946,untitled,2024.1.5,None,2024-10-09 13h19.49.662859 +0530,
137,0,137,0,284.86621639999794,,284.820743499964,10,284.86621639999794,284.86621639999794,0.02562269999179989,288.69825869996566,[0.352],[-0.296],[1],[0],[0],[3.8516585000324994],['target'],568187,001,2024-10-09_13h19.46.946,untitled,2024.1.5,None,2024-10-09 13h19.49.662859 +0530,
138,0,138,0,288.73313479998615,,288.7025347999879,5,288.73313479998615,288.73313479998615,0.014870999963022768,290.868289099948,[0.316],[0.144],[1],[0],[0],[2.151547700050287],['target'],568187,001,2024-10-09_13h19.46.946,untitled,2024.1.5,None,2024-10-09 13h19.49.662859 +0530,
139,0,139,0,290.9164774999954,,290.87205609999364,10,290.9164774999954,290.9164774999954,0.025417299999389797,293.2183885999839,[0.192],[-0.434],[1],[0],[0],[2.321667600015644],['target'],568187,001,2024-10-09_13h19.46.946,untitled,2024.1.5,None,2024-10-09 13h19.49.662859 +0530,
140,0,140,0,293.24953239999013,,293.2223728999961,5,293.24953239999013,293.24953239999013,0.017526699986774474,295.0189818999497,[-0.212],[-0.308],[1],[0],[0],[1.7795941000222228],['target'],568187,001,2024-10-09_13h19.46.946,untitled,2024.1.5,None,2024-10-09 13h19.49.662859 +0530,
141,0,141,0,295.0496678999625,,295.02149409998674,5,295.0496678999625,295.0496678999625,0.013311099959537387,296.31902549997903,[-0.152],[-0.326],[1],[0],[0],[1.2843451999942772],['target'],568187,001,2024-10-09_13h19.46.946,untitled,2024.1.5,None,2024-10-09 13h19.49.662859 +0530,
142,0,142,0,296.36637339997105,,296.3215067999554,10,296.36637339997105,296.36637339997105,0.026643299963325262,298.1353785999818,[-0.388],[-0.412],[1],[0],[0],[1.7872738000005484],['target'],568187,001,2024-10-09_13h19.46.946,untitled,2024.1.5,None,2024-10-09 13h19.49.662859 +0530,
143,0,143,0,298.1829377999529,,298.1394449999789,10,298.1829377999529,298.1829377999529,0.02282270003343001,300.0853495999472,[-0.046],[-0.458],[1],[0],[0],[1.9233219000161625],['target'],568187,001,2024-10-09_13h19.46.946,untitled,2024.1.5,None,2024-10-09 13h19.49.662859 +0530,
144,0,144,0,300.1161827999749,,300.0878506999579,5,300.1161827999749,300.1161827999749,0.013642900041304529,301.85242029995425,[0.294],[0.092],[1],[0],[0],[1.7510494000161998],['target'],568187,001,2024-10-09_13h19.46.946,untitled,2024.1.5,None,2024-10-09 13h19.49.662859 +0530,
145,0,145,0,301.89959980000276,,301.8549584999564,10,301.89959980000276,301.89959980000276,0.02848519996041432,304.3351894999505,[0.284],[-0.148],[1],[0],[0],[2.4519467999925837],['target'],568187,001,2024-10-09_13h19.46.946,untitled,2024.1.5,None,2024-10-09 13h19.49.662859 +0530,
146,0,146,0,304.3828859999776,,304.33758289995603,10,304.3828859999776,304.3828859999776,0.026499599975068122,306.402100599953,[0.444],[0.094],[1],[0],[0],[2.0381563000264578],['target'],568187,001,2024-10-09_13h19.46.946,untitled,2024.1.5,None,2024-10-09 13h19.49.662859 +0530,
147,0,147,0,306.44970089994604,,306.40456549997907,10,306.44970089994604,306.44970089994604,0.02677399996900931,308.93582769995555,[0.388],[-0.424],[1],[0],[0],[2.5046187000116333],['target'],568187,001,2024-10-09_13h19.46.946,untitled,2024.1.5,None,2024-10-09 13h19.49.662859 +0530,
148,0,148,0,308.96640219999244,,308.9384205999668,5,308.96640219999244,308.96640219999244,0.01479230000404641,310.6017774999491,[0.404],[0.268],[1],[0],[0],[1.648728400003165],['target'],568187,001,2024-10-09_13h19.46.946,untitled,2024.1.5,None,2024-10-09 13h19.49.662859 +0530,
149,0,149,0,310.64982669998426,,310.60416789999,10,310.64982669998426,310.64982669998426,0.02483340003527701,313.2349071999779,[0.366],[-0.472],[1],[0],[0],[2.606010299990885],['target'],568187,001,2024-10-09_13h19.46.946,untitled,2024.1.5,None,2024-10-09 13h19.49.662859 +0530,
150,0,150,0,313.26595549995545,,313.23778769996716,5,313.26595549995545,313.26595549995545,0.014564900018740445,314.9020474999561,[-0.034],[0.342],[1],[0],[0],[1.6500166999758221],['target'],568187,001,2024-10-09_13h19.46.946,untitled,2024.1.5,None,2024-10-09 13h19.49.662859 +0530,
151,0,151,0,314.93279079999775,,314.90467219997663,5,314.93279079999775,314.93279079999775,0.015204700001049787,316.55136119999224,[0.182],[-0.186],[1],[0],[0],[1.6317176000447944],['target'],568187,001,2024-10-09_13h19.46.946,untitled,2024.1.5,None,2024-10-09 13h19.49.662859 +0530,
152,0,152,0,316.58283569995547,,316.5547058999655,5,316.58283569995547,316.58283569995547,0.014592099993024021,318.50232039997354,[-0.338],[0.062],[1],[0],[0],[1.933212200005073],['target'],568187,001,2024-10-09_13h19.46.946,untitled,2024.1.5,None,2024-10-09 13h19.49.662859 +0530,
153,0,153,0,318.53351169999223,,318.50506779999705,5,318.53351169999223,318.53351169999223,0.014200799982063472,320.1522179999738,[-0.218],[0.056],[1],[0],[0],[1.6333086999948137],['target'],568187,001,2024-10-09_13h19.46.946,untitled,2024.1.5,None,2024-10-09 13h19.49.662859 +0530,
154,0,154,0,320.18348499998683,,320.1549837999628,5,320.18348499998683,320.18348499998683,0.014478600001893938,322.08489389996976,[0.202],[0.322],[1],[0],[0],[1.9157641000347212],['target'],568187,001,2024-10-09_13h19.46.946,untitled,2024.1.5,None,2024-10-09 13h19.49.662859 +0530,
155,0,155,0,322.1160682999762,,322.08722169999965,5,322.1160682999762,322.1160682999762,0.013457599969115108,323.51910889998544,[-0.042],[0.356],[1],[0],[0],[1.417937099991832],['target'],568187,001,2024-10-09_13h19.46.946,untitled,2024.1.5,None,2024-10-09 13h19.49.662859 +0530,
156,0,156,0,323.5662212999887,,323.5271152999485,5,323.5662212999887,323.5662212999887,0.022525799984578043,325.03494579996914,[-0.284],[-0.124],[1],[0],[0],[1.4864931000047363],['target'],568187,001,2024-10-09_13h19.46.946,untitled,2024.1.5,None,2024-10-09 13h19.49.662859 +0530,
157,0,157,0,325.0663598999963,,325.0382027999731,5,325.0663598999963,325.0663598999963,0.013695900037419051,327.0849959999905,[0.388],[0.042],[1],[0],[0],[2.033381699991878],['target'],568187,001,2024-10-09_13h19.46.946,untitled,2024.1.5,None,2024-10-09 13h19.49.662859 +0530,
158,0,158,0,327.11622079997323,,327.0875989999622,5,327.11622079997323,327.11622079997323,0.013726699980907142,328.72125589998905,[0.226],[0.292],[1],[0],[0],[1.6196139000239782],['target'],568187,001,2024-10-09_13h19.46.946,untitled,2024.1.5,None,2024-10-09 13h19.49.662859 +0530,
159,0,159,0,328.78269179997733,,328.7316981999902,5,328.78269179997733,328.78269179997733,0.03442689997609705,330.96846679999726,[0.322],[-0.292],[1],[0],[0],[2.2044532999861985],['target'],568187,001,2024-10-09_13h19.46.946,untitled,2024.1.5,None,2024-10-09 13h19.49.662859 +0530,
160,0,160,0,330.9998166000005,,330.9708830000018,5,330.9998166000005,330.9998166000005,0.013341099955141544,332.6184404999949,[0.148],[0.314],[1],[0],[0],[1.6343498000060208],['target'],568187,001,2024-10-09_13h19.46.946,untitled,2024.1.5,None,2024-10-09 13h19.49.662859 +0530,
161,0,161,0,332.66636089998065,,332.62281029997393,10,332.66636089998065,332.66636089998065,0.025631099997553974,334.2347166999825,[0.256],[0.28],[1],[0],[0],[1.586798499978613],['target'],568187,001,2024-10-09_13h19.46.946,untitled,2024.1.5,None,2024-10-09 13h19.49.662859 +0530,
162,0,162,0,334.2662021999713,,334.23740119999275,5,334.2662021999713,334.2662021999713,0.012016900000162423,337.08495389996096,[-0.084],[-0.308],[1],[0],[0],[2.835651300032623],['target'],568187,001,2024-10-09_13h19.46.946,untitled,2024.1.5,None,2024-10-09 13h19.49.662859 +0530,
163,0,163,0,337.1499666000018,,337.08732880000025,10,337.1499666000018,337.1499666000018,0.030017599987331778,338.23492469999474,[-0.172],[-0.204],[1],[0],[0],[1.1176703999517485],['target'],568187,001,2024-10-09_13h19.46.946,untitled,2024.1.5,None,2024-10-09 13h19.49.662859 +0530,
164,0,164,0,338.2663532999577,,338.2389709999552,5,338.2663532999577,338.2663532999577,0.016324800031725317,340.13766629999736,[-0.062],[0.018],[1],[0],[0],[1.8819565000012517],['target'],568187,001,2024-10-09_13h19.46.946,untitled,2024.1.5,None,2024-10-09 13h19.49.662859 +0530,
165,0,165,0,340.2163178999908,,340.14902979996987,10,340.2163178999908,340.2163178999908,0.040266400028485805,342.0541195999831,[-0.464],[0.02],[1],[0],[0],[1.866438900004141],['target'],568187,001,2024-10-09_13h19.46.946,untitled,2024.1.5,None,2024-10-09 13h19.49.662859 +0530,
166,0,166,0,342.0995244999649,,342.05694679997396,5,342.0995244999649,342.0995244999649,0.01558639999711886,345.1553079999867,[-0.42],[0.276],[1],[0],[0],[3.082393200020306],['target'],568187,001,2024-10-09_13h19.46.946,untitled,2024.1.5,None,2024-10-09 13h19.49.662859 +0530,
167,0,167,0,345.2332261999836,,345.1622821999481,10,345.2332261999836,345.2332261999836,0.04791809996822849,346.88621589995455,[0.056],[-0.2],[1],[0],[0],[1.676488499972038],['target'],568187,001,2024-10-09_13h19.46.946,untitled,2024.1.5,None,2024-10-09 13h19.49.662859 +0530,
168,0,168,0,346.9663266999996,,346.8943032999523,10,346.9663266999996,346.9663266999996,0.052511799964122474,349.10308759997133,[-0.178],[-0.396],[1],[0],[0],[2.1571224000072107],['target'],568187,001,2024-10-09_13h19.46.946,untitled,2024.1.5,None,2024-10-09 13h19.49.662859 +0530,
169,0,169,0,349.1664127999684,,349.1115371999913,10,349.1664127999684,349.1664127999684,0.03643590002320707,350.7534480999457,[-0.5],[0.05],[1],[0],[0],[1.6064951999578625],['target'],568187,001,2024-10-09_13h19.46.946,untitled,2024.1.5,None,2024-10-09 13h19.49.662859 +0530,
170,0,170,0,350.8165766999591,,350.7600676000002,10,350.8165766999591,350.8165766999591,0.036150400002952665,352.35295119998045,[-0.484],[-0.116],[1],[0],[0],[1.5574397000018507],['target'],568187,001,2024-10-09_13h19.46.946,untitled,2024.1.5,None,2024-10-09 13h19.49.662859 +0530,
171,0,171,0,352.41633269999875,,352.35965089994716,5,352.41633269999875,352.41633269999875,0.031096699996851385,354.8372453999473,[0.332],[-0.26],[1],[0],[0],[2.4471513999742456],['target'],568187,001,2024-10-09_13h19.46.946,untitled,2024.1.5,None,2024-10-09 13h19.49.662859 +0530,
172,0,172,0,354.9003074999782,,354.8435582999955,5,354.9003074999782,354.9003074999782,0.03328239999245852,357.038462699973,[0.232],[-0.268],[1],[0],[0],[2.1622074999613687],['target'],568187,001,2024-10-09_13h19.46.946,untitled,2024.1.5,None,2024-10-09 13h19.49.662859 +0530,
173,0,173,0,357.10023279994493,,357.04556599998614,5,357.10023279994493,357.10023279994493,0.03236849996028468,358.354863799992,[-0.418],[-0.296],[1],[0],[0],[1.2776192000019364],['target'],568187,001,2024-10-09_13h19.46.946,untitled,2024.1.5,None,2024-10-09 13h19.49.662859 +0530,
174,0,174,0,358.4502104999847,,358.3624190999544,10,358.4502104999847,358.4502104999847,0.06308069999795407,360.35329299996374,[0.118],[0.208],[1],[0],[0],[1.9284600999671966],['target'],568187,001,2024-10-09_13h19.46.946,untitled,2024.1.5,None,2024-10-09 13h19.49.662859 +0530,
175,0,175,0,360.4168916999479,,360.3604621999548,5,360.4168916999479,360.4168916999479,0.03056420001666993,362.63750069995876,[-0.456],[-0.112],[1],[0],[0],[2.247349800018128],['target'],568187,001,2024-10-09_13h19.46.946,untitled,2024.1.5,None,2024-10-09 13h19.49.662859 +0530,
176,0,176,0,362.69974559999537,,362.6452042000019,10,362.69974559999537,362.69974559999537,0.03303839999716729,364.8207664999645,[0.156],[0.404],[1],[0],[0],[2.143281900032889],['target'],568187,001,2024-10-09_13h19.46.946,untitled,2024.1.5,None,2024-10-09 13h19.49.662859 +0530,
177,0,177,0,364.8838652999839,,364.82791870000074,5,364.8838652999839,364.8838652999839,0.03402510000159964,366.38849990000017,[0.274],[0.244],[1],[0],[0],[1.527534699998796],['target'],568187,001,2024-10-09_13h19.46.946,untitled,2024.1.5,None,2024-10-09 13h19.49.662859 +0530,
178,0,178,0,366.48364369996125,,366.39482940000016,10,366.48364369996125,366.48364369996125,0.061377500009257346,368.2532805999508,[0.466],[-0.468],[1],[0],[0],[1.797687699960079],['target'],568187,001,2024-10-09_13h19.46.946,untitled,2024.1.5,None,2024-10-09 13h19.49.662859 +0530,
179,0,179,0,368.3331739999703,,368.2602829999523,10,368.3331739999703,368.3331739999703,0.049053900002036244,370.419514899957,[0.06],[-0.428],[1],[0],[0],[2.1112439000280574],['target'],568187,001,2024-10-09_13h19.46.946,untitled,2024.1.5,None,2024-10-09 13h19.49.662859 +0530,
180,0,180,0,370.45012049999787,,370.42195789999096,5,370.45012049999787,370.45012049999787,0.011658500006888062,372.08739709999645,[-0.274],[-0.364],[1],[0],[0],[1.6536348000518046],['target'],568187,001,2024-10-09_13h19.46.946,untitled,2024.1.5,None,2024-10-09 13h19.49.662859 +0530,
181,0,181,0,372.15072189999046,,372.0942443999811,5,372.15072189999046,372.15072189999046,0.03245709999464452,374.60559669998474,[-0.422],[0.28],[1],[0],[0],[2.4794729000423104],['target'],568187,001,2024-10-09_13h19.46.946,untitled,2024.1.5,None,2024-10-09 13h19.49.662859 +0530,
182,0,182,0,374.700362899981,,374.6122229999746,10,374.700362899981,374.700362899981,0.06628430000273511,376.66970289999153,[-0.15],[0.104],[1],[0],[0],[1.9917132999980822],['target'],568187,001,2024-10-09_13h19.46.946,untitled,2024.1.5,None,2024-10-09 13h19.49.662859 +0530,
183,0,183,0,376.7335421999451,,376.67686079995474,10,376.7335421999451,376.7335421999451,0.03768609999679029,379.37034119997406,[-0.224],[-0.438],[1],[0],[0],[2.6564844000386074],['target'],568187,001,2024-10-09_13h19.46.946,untitled,2024.1.5,None,2024-10-09 13h19.49.662859 +0530,
184,0,184,0,379.4163875999511,,379.37725079996744,5,379.4163875999511,379.4163875999511,0.027903800015337765,381.385232599976,[-0.36],[0.33],[1],[0],[0],[1.9812008999870159],['target'],568187,001,2024-10-09_13h19.46.946,untitled,2024.1.5,None,2024-10-09 13h19.49.662859 +0530,
185,0,185,0,381.4500892999931,,381.3921724999673,10,381.4500892999931,381.4500892999931,0.034312000032514334,382.95258459995966,[-0.152],[0.144],[1],[0],[0],[1.526676299981773],['target'],568187,001,2024-10-09_13h19.46.946,untitled,2024.1.5,None,2024-10-09 13h19.49.662859 +0530,
186,0,186,0,383.03308679995826,,382.9595933999517,10,383.03308679995826,383.03308679995826,0.049609200039412826,384.66938019997906,[-0.47],[-0.434],[1],[0],[0],[1.660926999989897],['target'],568187,001,2024-10-09_13h19.46.946,untitled,2024.1.5,None,2024-10-09 13h19.49.662859 +0530,
187,0,187,0,384.76739949994953,,384.6762365999748,10,384.76739949994953,384.76739949994953,0.06373999995412305,386.8689064999926,[-0.25],[0.356],[1],[0],[0],[2.1297058000345714],['target'],568187,001,2024-10-09_13h19.46.946,untitled,2024.1.5,None,2024-10-09 13h19.49.662859 +0530,
188,0,188,0,386.93330619996414,,386.8757142999675,10,386.93330619996414,386.93330619996414,0.03957249998347834,388.90452260000166,[0.17],[0.022],[1],[0],[0],[1.989733399997931],['target'],568187,001,2024-10-09_13h19.46.946,untitled,2024.1.5,None,2024-10-09 13h19.49.662859 +0530,
189,0,189,0,388.9674046,,388.91092969995225,5,388.9674046,388.9674046,0.03241730004083365,391.1374783999636,[0.33],[-0.44],[1],[0],[0],[2.1947283999761567],['target'],568187,001,2024-10-09_13h19.46.946,untitled,2024.1.5,None,2024-10-09 13h19.49.662859 +0530,
190,0,190,0,391.20093369996175,,391.1440484999912,5,391.20093369996175,391.20093369996175,0.03184439998585731,393.17065009998623,[-0.382],[-0.054],[1],[0],[0],[1.9952317000133917],['target'],568187,001,2024-10-09_13h19.46.946,untitled,2024.1.5,None,2024-10-09 13h19.49.662859 +0530,
191,0,191,0,393.23379199998453,,393.17713299999014,5,393.23379199998453,393.23379199998453,0.03303689998574555,395.48702399997273,[0.426],[-0.306],[1],[0],[0],[2.2776977000175975],['target'],568187,001,2024-10-09_13h19.46.946,untitled,2024.1.5,None,2024-10-09 13h19.49.662859 +0530,
192,0,192,0,395.5667399999802,,395.49381989997346,10,395.5667399999802,395.5667399999802,0.05281459999969229,397.4364503999823,"[0.426, -0.164]","[-0.306, 0.14]","[1, 1]","[0, 0]","[0, 0]","[0.1567042000242509, 1.8903870999929495]",['target'],568187,001,2024-10-09_13h19.46.946,untitled,2024.1.5,None,2024-10-09 13h19.49.662859 +0530,
193,0,193,0,397.5004721999867,,397.4432010999881,5,397.5004721999867,397.5004721999867,0.032514600025024265,399.3686362999724,[-0.408],[-0.068],[1],[0],[0],[1.8940161999780685],['target'],568187,001,2024-10-09_13h19.46.946,untitled,2024.1.5,None,2024-10-09 13h19.49.662859 +0530,
194,0,194,0,399.416543099971,,399.37105839996366,10,399.416543099971,399.416543099971,0.023556899977847934,401.0536695999908,[-0.12],[0.41],[1],[0],[0],[1.6585941000375897],['target'],568187,001,2024-10-09_13h19.46.946,untitled,2024.1.5,None,2024-10-09 13h19.49.662859 +0530,
195,0,195,0,401.1506546000019,,401.0609165999922,10,401.1506546000019,401.1506546000019,0.06538179999915883,402.8193481999915,[0.14],[0.204],[1],[0],[0],[1.6937352999811992],['target'],568187,001,2024-10-09_13h19.46.946,untitled,2024.1.5,None,2024-10-09 13h19.49.662859 +0530,
196,0,196,0,402.8835925999447,,402.8259371999884,10,402.8835925999447,402.8835925999447,0.045248900016304106,404.8860847999458,[0.488],[0.224],[1],[0],[0],[2.01549060002435],['target'],568187,001,2024-10-09_13h19.46.946,untitled,2024.1.5,None,2024-10-09 13h19.49.662859 +0530,
197,0,197,0,405.0010268999613,,404.89263959997334,10,405.0010268999613,405.0010268999613,0.06826289999298751,406.37035569996806,[0.324],[0.28],[1],[0],[0],[1.4100715000531636],['target'],568187,001,2024-10-09_13h19.46.946,untitled,2024.1.5,None,2024-10-09 13h19.49.662859 +0530,
198,0,198,0,406.43353409995325,,406.3778818999999,10,406.43353409995325,406.43353409995325,0.03693250002106652,408.63641819998156,[-0.244],[-0.144],[1],[0],[0],[2.2223779000341892],['target'],568187,001,2024-10-09_13h19.46.946,untitled,2024.1.5,None,2024-10-09 13h19.49.662859 +0530,
199,0,199,0,408.7003384999698,,408.6429951999453,5,408.7003384999698,408.7003384999698,0.03284420003183186,410.4860450999695,[-0.212],[-0.186],[1],[0],[0],[1.810905099962838],['target'],568187,001,2024-10-09_13h19.46.946,untitled,2024.1.5,None,2024-10-09 13h19.49.662859 +0530,
