trials.thisRepN,trials.thisTrialN,trials.thisN,trials.thisIndex,thisRow.t,notes,trial.started,num_distr,fixation.started,target.started,mouse.started,trial.stopped,mouse.x,mouse.y,mouse.leftButton,mouse.midButton,mouse.rightButton,mouse.time,mouse.clicked_name,participant,session,date,expName,psychopyVersion,frameRate,expStart,
0,0,0,0,0.08064749999903142,,0.018145000038202852,10,0.08064749999903142,0.08064749999903142,0.04862809996120632,1.8511076000286266,[0.026],[0.47],[1],[0],[0],[1.8016444999957457],['target'],940595,001,2024-10-09_00h32.10.569,untitled,2024.1.5,None,2024-10-09 00h32.13.383241 +0530,
1,0,1,0,1.8966649000067264,,1.8586696000420488,5,1.8966649000067264,1.8966649000067264,0.013437799992971122,3.299748800054658,[0.328],[0.478],[1],[0],[0],[1.4275852999999188],['target'],940595,001,2024-10-09_00h32.10.569,untitled,2024.1.5,None,2024-10-09 00h32.13.383241 +0530,
2,0,2,0,3.3309345000307076,,3.3030232000164688,5,3.3309345000307076,3.3309345000307076,0.01711529999738559,5.150783999997657,[-0.022],[-0.308],[1],[0],[0],[1.830349900003057],['target'],940595,001,2024-10-09_00h32.10.569,untitled,2024.1.5,None,2024-10-09 00h32.13.383241 +0530,
3,0,3,0,5.1976343000424094,,5.154772800044157,10,5.1976343000424094,5.1976343000424094,0.023490499996114522,6.583347000007052,[0.068],[0.352],[1],[0],[0],[1.4051541999797337],['target'],940595,001,2024-10-09_00h32.10.569,untitled,2024.1.5,None,2024-10-09 00h32.13.383241 +0530,
4,0,4,0,6.6137518000323325,,6.587180300033651,5,6.6137518000323325,6.6137518000323325,0.015410599997267127,9.318073400005233,"[-0.4, -0.378]","[-0.292, -0.27]","[1, 1]","[0, 0]","[0, 0]","[1.6469727999647148, 2.715642199967988]",['target'],940595,001,2024-10-09_00h32.10.569,untitled,2024.1.5,None,2024-10-09 00h32.13.383241 +0530,
5,0,5,0,9.347440500045195,,9.32193840004038,5,9.347440500045195,9.347440500045195,0.013731999963056296,12.201520600006916,"[0.184, 0.252]","[0.15, 0.382]","[1, 1]","[0, 0]","[0, 0]","[1.3982091999496333, 2.865853799972683]",['target'],940595,001,2024-10-09_00h32.10.569,untitled,2024.1.5,None,2024-10-09 00h32.13.383241 +0530,
6,0,6,0,12.23041350004496,,12.20483120001154,5,12.23041350004496,12.23041350004496,0.012998300022445619,13.816785000031814,[-0.262],[-0.058],[1],[0],[0],[1.5987690999754705],['target'],940595,001,2024-10-09_00h32.10.569,untitled,2024.1.5,None,2024-10-09 00h32.13.383241 +0530,
7,0,7,0,13.863871400011703,,13.82123960001627,10,13.863871400011703,13.863871400011703,0.025975199998356402,15.383079200051725,[0.126],[0.46],[1],[0],[0],[1.5362735000089742],['target'],940595,001,2024-10-09_00h32.10.569,untitled,2024.1.5,None,2024-10-09 00h32.13.383241 +0530,
8,0,8,0,15.430401300021913,,15.387138700054493,10,15.430401300021913,15.430401300021913,0.026943400036543608,17.083516800019424,[0.014],[-0.028],[1],[0],[0],[1.669534399989061],['target'],940595,001,2024-10-09_00h32.10.569,untitled,2024.1.5,None,2024-10-09 00h32.13.383241 +0530,
9,0,9,0,17.130304200050887,,17.086960900051054,10,17.130304200050887,17.130304200050887,0.02416179998544976,18.782823600049596,[0.286],[0.106],[1],[0],[0],[1.6717551000183448],['target'],940595,001,2024-10-09_00h32.10.569,untitled,2024.1.5,None,2024-10-09 00h32.13.383241 +0530,
10,0,10,0,18.846916000009514,,18.78632060001837,5,18.846916000009514,18.846916000009514,0.0371088000247255,20.650801000010688,[-0.012],[-0.34],[1],[0],[0],[1.8274877999792807],['target'],940595,001,2024-10-09_00h32.10.569,untitled,2024.1.5,None,2024-10-09 00h32.13.383241 +0530,
11,0,11,0,20.680730700027198,,20.655033400049433,5,20.680730700027198,20.680730700027198,0.015753299987409264,22.83417200000258,[-0.478],[0.284],[1],[0],[0],[2.163481099996716],['target'],940595,001,2024-10-09_00h32.10.569,untitled,2024.1.5,None,2024-10-09 00h32.13.383241 +0530,
12,0,12,0,22.86420360003831,,22.83839300001273,5,22.86420360003831,22.86420360003831,0.014148599992040545,25.03419880004367,[-0.382],[-0.46],[1],[0],[0],[2.181910599989351],['target'],940595,001,2024-10-09_00h32.10.569,untitled,2024.1.5,None,2024-10-09 00h32.13.383241 +0530,
13,0,13,0,25.06423200003337,,25.038601500040386,5,25.06423200003337,25.06423200003337,0.01491239998722449,27.26650540000992,[0.244],[-0.356],[1],[0],[0],[2.2131647000205703],['target'],940595,001,2024-10-09_00h32.10.569,untitled,2024.1.5,None,2024-10-09 00h32.13.383241 +0530,
14,0,14,0,27.29703790001804,,27.269109400047455,5,27.29703790001804,27.29703790001804,0.012804600002709776,28.867016100033652,[0.424],[0.046],[1],[0],[0],[1.584995399985928],['target'],940595,001,2024-10-09_00h32.10.569,untitled,2024.1.5,None,2024-10-09 00h32.13.383241 +0530,
15,0,15,0,28.89707190002082,,28.86962150002364,5,28.89707190002082,28.89707190002082,0.012680900050327182,30.784045800042804,[-0.468],[-0.426],[1],[0],[0],[1.901439399982337],['target'],940595,001,2024-10-09_00h32.10.569,untitled,2024.1.5,None,2024-10-09 00h32.13.383241 +0530,
16,0,16,0,30.8303097000462,,30.78825120005058,10,30.8303097000462,30.8303097000462,0.030003699997905642,32.500810600002296,[-0.124],[0.432],[1],[0],[0],[1.6826991999987513],['target'],940595,001,2024-10-09_00h32.10.569,untitled,2024.1.5,None,2024-10-09 00h32.13.383241 +0530,
17,0,17,0,32.54741500003729,,32.50472820003051,10,32.54741500003729,32.54741500003729,0.024776500009465963,34.20058490004158,[-0.194],[-0.252],[1],[0],[0],[1.6710408999933861],['target'],940595,001,2024-10-09_00h32.10.569,untitled,2024.1.5,None,2024-10-09 00h32.13.383241 +0530,
18,0,18,0,34.24756760004675,,34.20449460000964,10,34.24756760004675,34.24756760004675,0.02532070002052933,36.06792750000022,[0.346],[0.5],[1],[0],[0],[1.8381135999807157],['target'],940595,001,2024-10-09_00h32.10.569,untitled,2024.1.5,None,2024-10-09 00h32.13.383241 +0530,
19,0,19,0,36.09747520001838,,36.071870500047226,5,36.09747520001838,36.09747520001838,0.014786699961405247,38.41680800000904,[-0.298],[0.108],[1],[0],[0],[2.3302531000226736],['target'],940595,001,2024-10-09_00h32.10.569,untitled,2024.1.5,None,2024-10-09 00h32.13.383241 +0530,
20,0,20,0,38.46410860004835,,38.42111210001167,10,38.46410860004835,38.46410860004835,0.02586150000570342,40.81725030002417,[-0.46],[0.484],[1],[0],[0],[2.3705429999972694],['target'],940595,001,2024-10-09_00h32.10.569,untitled,2024.1.5,None,2024-10-09 00h32.13.383241 +0530,
21,0,21,0,40.86428960005287,,40.82138220005436,10,40.86428960005287,40.86428960005287,0.02734430000418797,43.14969970000675,[-0.14],[0.054],[1],[0],[0],[2.301140800002031],['target'],940595,001,2024-10-09_00h32.10.569,untitled,2024.1.5,None,2024-10-09 00h32.13.383241 +0530,
22,0,22,0,43.181292599998415,,43.1530299000442,5,43.181292599998415,43.181292599998415,0.01541330001782626,45.41783050005324,[0.37],[-0.066],[1],[0],[0],[2.24934789998224],['target'],940595,001,2024-10-09_00h32.10.569,untitled,2024.1.5,None,2024-10-09 00h32.13.383241 +0530,
23,0,23,0,45.48067040002206,,45.422340300050564,5,45.48067040002206,45.48067040002206,0.04205669998191297,47.434945700049866,[-0.34],[0.186],[1],[0],[0],[1.9705949999624863],['target'],940595,001,2024-10-09_00h32.10.569,untitled,2024.1.5,None,2024-10-09 00h32.13.383241 +0530,
24,0,24,0,47.464211000013165,,47.439358600007836,5,47.464211000013165,47.464211000013165,0.014646099996753037,49.1500649000518,[-0.15],[0.458],[1],[0],[0],[1.6962746999925002],['target'],940595,001,2024-10-09_00h32.10.569,untitled,2024.1.5,None,2024-10-09 00h32.13.383241 +0530,
25,0,25,0,49.18079610000132,,49.15406640002038,5,49.18079610000132,49.18079610000132,0.01410349999787286,51.118563000054564,[-0.17],[-0.216],[1],[0],[0],[1.9504628999857232],['target'],940595,001,2024-10-09_00h32.10.569,untitled,2024.1.5,None,2024-10-09 00h32.13.383241 +0530,
26,0,26,0,51.1639823000296,,51.12289310002234,10,51.1639823000296,51.1639823000296,0.026048499974422157,53.450051000050735,[0.232],[0.144],[1],[0],[0],[2.3013185000163503],['target'],940595,001,2024-10-09_00h32.10.569,untitled,2024.1.5,None,2024-10-09 00h32.13.383241 +0530,
27,0,27,0,53.48085180000635,,53.45430290000513,5,53.48085180000635,53.48085180000635,0.015163599979132414,55.58326800004579,[-0.46],[-0.468],[1],[0],[0],[2.1141053999890573],['target'],940595,001,2024-10-09_00h32.10.569,untitled,2024.1.5,None,2024-10-09 00h32.13.383241 +0530,
28,0,28,0,55.66437950002728,,55.587575100013055,10,55.66437950002728,55.66437950002728,0.05111120000947267,57.31569480005419,[-0.098],[0.202],[1],[0],[0],[1.6771264999988489],['target'],940595,001,2024-10-09_00h32.10.569,untitled,2024.1.5,None,2024-10-09 00h32.13.383241 +0530,
29,0,29,0,57.34732100000838,,57.31990600004792,5,57.34732100000838,57.34732100000838,0.01679710001917556,59.8506637000246,[-0.032],[0.472],[1],[0],[0],[2.5140642000478692],['target'],940595,001,2024-10-09_00h32.10.569,untitled,2024.1.5,None,2024-10-09 00h32.13.383241 +0530,
30,0,30,0,59.89761060004821,,59.854879300051834,10,59.89761060004821,59.89761060004821,0.02585380000527948,62.034372800029814,[0.332],[-0.38],[1],[0],[0],[2.153865600004792],['target'],940595,001,2024-10-09_00h32.10.569,untitled,2024.1.5,None,2024-10-09 00h32.13.383241 +0530,
31,0,31,0,62.08088540000608,,62.037366200005636,10,62.08088540000608,62.08088540000608,0.02324940002290532,64.28387020004448,[0.226],[0.222],[1],[0],[0],[2.2230091000092216],['target'],940595,001,2024-10-09_00h32.10.569,untitled,2024.1.5,None,2024-10-09 00h32.13.383241 +0530,
32,0,32,0,64.33092190005118,,64.28830150002614,10,64.33092190005118,64.33092190005118,0.02612789999693632,66.4496956000221,[-0.462],[-0.244],[1],[0],[0],[2.1355601000250317],['target'],940595,001,2024-10-09_00h32.10.569,untitled,2024.1.5,None,2024-10-09 00h32.13.383241 +0530,
33,0,33,0,66.49766980001004,,66.45328840002185,10,66.49766980001004,66.49766980001004,0.027049100026488304,68.09980270004598,[0.23],[0.18],[1],[0],[0],[1.6197124000173062],['target'],940595,001,2024-10-09_00h32.10.569,untitled,2024.1.5,None,2024-10-09 00h32.13.383241 +0530,
34,0,34,0,68.16417070000898,,68.1036564000533,5,68.16417070000898,68.16417070000898,0.040506399993319064,70.70144530001562,[-0.212],[0.388],[1],[0],[0],[2.5574783999472857],['target'],940595,001,2024-10-09_00h32.10.569,untitled,2024.1.5,None,2024-10-09 00h32.13.383241 +0530,
35,0,35,0,70.73077900003409,,70.70516850001877,5,70.73077900003409,70.73077900003409,0.01335810002638027,72.63480180001352,[0.058],[-0.284],[1],[0],[0],[1.9161285000154749],['target'],940595,001,2024-10-09_00h32.10.569,untitled,2024.1.5,None,2024-10-09 00h32.13.383241 +0530,
36,0,36,0,72.66431740002008,,72.63865670002997,5,72.66431740002008,72.66431740002008,0.013636099989525974,74.36895940004615,[0.32],[-0.18],[1],[0],[0],[1.716772400017362],['target'],940595,001,2024-10-09_00h32.10.569,untitled,2024.1.5,None,2024-10-09 00h32.13.383241 +0530,
37,0,37,0,74.43102870002622,,74.37340920005227,10,74.43102870002622,74.43102870002622,0.025725999963469803,76.48301440000068,[-0.046],[0.144],[1],[0],[0],[2.0841095000505447],['target'],940595,001,2024-10-09_00h32.10.569,untitled,2024.1.5,None,2024-10-09 00h32.13.383241 +0530,
38,0,38,0,76.53057080000872,,76.48535690002609,10,76.53057080000872,76.53057080000872,0.023225899960380048,78.74997540004551,[0.254],[-0.124],[1],[0],[0],[2.2410865000565536],['target'],940595,001,2024-10-09_00h32.10.569,untitled,2024.1.5,None,2024-10-09 00h32.13.383241 +0530,
39,0,39,0,78.7971019000397,,78.75265270000091,10,78.7971019000397,78.7971019000397,0.02397809998365119,81.56676940002944,[0.444],[0.058],[1],[0],[0],[2.790073600015603],['target'],940595,001,2024-10-09_00h32.10.569,untitled,2024.1.5,None,2024-10-09 00h32.13.383241 +0530,
40,0,40,0,81.59768669999903,,81.56971480004722,5,81.59768669999903,81.59768669999903,0.012862100033089519,83.71696080005495,[0.316],[-0.286],[1],[0],[0],[2.134026799991261],['target'],940595,001,2024-10-09_00h32.10.569,untitled,2024.1.5,None,2024-10-09 00h32.13.383241 +0530,
41,0,41,0,83.78109320002841,,83.72124660003465,10,83.78109320002841,83.78109320002841,0.032967999984975904,85.73491050000302,[-0.348],[0.286],[1],[0],[0],[1.9809822999523021],['target'],940595,001,2024-10-09_00h32.10.569,untitled,2024.1.5,None,2024-10-09 00h32.13.383241 +0530,
42,0,42,0,85.84707040002104,,85.73911370005226,10,85.84707040002104,85.84707040002104,0.07943139999406412,87.73379950004164,[-0.028],[-0.024],[1],[0],[0],[1.915420399978757],['target'],940595,001,2024-10-09_00h32.10.569,untitled,2024.1.5,None,2024-10-09 00h32.13.383241 +0530,
43,0,43,0,87.78107260004617,,87.7368461000151,10,87.78107260004617,87.78107260004617,0.023943500011228025,89.76691950001987,[0.416],[-0.436],[1],[0],[0],[2.0058952000108548],['target'],940595,001,2024-10-09_00h32.10.569,untitled,2024.1.5,None,2024-10-09 00h32.13.383241 +0530,
44,0,44,0,89.8136252000113,,89.7699364,10,89.8136252000113,89.8136252000113,0.02349360001971945,92.90187930001412,[-0.324],[0.428],[1],[0],[0],[3.1080877000349574],['target'],940595,001,2024-10-09_00h32.10.569,untitled,2024.1.5,None,2024-10-09 00h32.13.383241 +0530,
45,0,45,0,92.94745570002124,,92.90599280002061,5,92.94745570002124,92.94745570002124,0.014702400017995387,94.94995989999734,[0.12],[0.432],[1],[0],[0],[2.0294865999603644],['target'],940595,001,2024-10-09_00h32.10.569,untitled,2024.1.5,None,2024-10-09 00h32.13.383241 +0530,
46,0,46,0,95.01438440004131,,94.9542453000322,10,95.01438440004131,95.01438440004131,0.04348849999951199,96.76598640001612,[0.314],[0.22],[1],[0],[0],[1.7685599999967963],['target'],940595,001,2024-10-09_00h32.10.569,untitled,2024.1.5,None,2024-10-09 00h32.13.383241 +0530,
47,0,47,0,96.81420160003472,,96.76864230004139,10,96.81420160003472,96.81420160003472,0.028399800008628517,98.54977270000381,[0.022],[0.38],[1],[0],[0],[1.7526336000300944],['target'],940595,001,2024-10-09_00h32.10.569,untitled,2024.1.5,None,2024-10-09 00h32.13.383241 +0530,
48,0,48,0,98.59772340004565,,98.55310110002756,10,98.59772340004565,98.59772340004565,0.026113600004464388,100.26612140005454,[0.092],[0.162],[1],[0],[0],[1.6868667000089772],['target'],940595,001,2024-10-09_00h32.10.569,untitled,2024.1.5,None,2024-10-09 00h32.13.383241 +0530,
49,0,49,0,100.31473590002861,,100.27053249999881,5,100.31473590002861,100.31473590002861,0.01814250001916662,102.83361460000742,[-0.422],[-0.448],[1],[0],[0],[2.545296700031031],['target'],940595,001,2024-10-09_00h32.10.569,untitled,2024.1.5,None,2024-10-09 00h32.13.383241 +0530,
50,0,50,0,102.86468660004903,,102.83767050004099,5,102.86468660004903,102.86468660004903,0.01389900001231581,104.90072560001863,[0.112],[-0.35],[1],[0],[0],[2.049288699985482],['target'],940595,001,2024-10-09_00h32.10.569,untitled,2024.1.5,None,2024-10-09 00h32.13.383241 +0530,
51,0,51,0,104.94728490000125,,104.9036855000304,10,104.94728490000125,104.94728490000125,0.023506300000008196,106.83375700004399,[-0.3],[0.176],[1],[0],[0],[1.9064750000252388],['target'],940595,001,2024-10-09_00h32.10.569,untitled,2024.1.5,None,2024-10-09 00h32.13.383241 +0530,
52,0,52,0,106.86441460001515,,106.83687530003954,5,106.86441460001515,106.86441460001515,0.012542899989057332,109.43360180000309,[0.252],[-0.204],[1],[0],[0],[2.5841022999957204],['target'],940595,001,2024-10-09_00h32.10.569,untitled,2024.1.5,None,2024-10-09 00h32.13.383241 +0530,
53,0,53,0,109.46464330004528,,109.43782370002009,5,109.46464330004528,109.46464330004528,0.016397900006268173,111.06714030000148,[0.07],[0.19],[1],[0],[0],[1.6130704999668524],['target'],940595,001,2024-10-09_00h32.10.569,untitled,2024.1.5,None,2024-10-09 00h32.13.383241 +0530,
54,0,54,0,111.09759590000613,,111.07114980003098,5,111.09759590000613,111.09759590000613,0.013726699980907142,112.80144530005055,[-0.244],[0.002],[1],[0],[0],[1.7165722000063397],['target'],940595,001,2024-10-09_00h32.10.569,untitled,2024.1.5,None,2024-10-09 00h32.13.383241 +0530,
55,0,55,0,112.8309683999978,,112.80596409999998,5,112.8309683999978,112.8309683999978,0.015006800007540733,114.73449280002387,[0.382],[0.056],[1],[0],[0],[1.9139203999657184],['target'],940595,001,2024-10-09_00h32.10.569,untitled,2024.1.5,None,2024-10-09 00h32.13.383241 +0530,
56,0,56,0,114.78077579999808,,114.7387845000485,10,114.78077579999808,114.78077579999808,0.02589990000706166,116.3510127000045,[0.43],[0.412],[1],[0],[0],[1.5865846000378951],['target'],940595,001,2024-10-09_00h32.10.569,untitled,2024.1.5,None,2024-10-09 00h32.13.383241 +0530,
57,0,57,0,116.38075830001617,,116.35357480001403,5,116.38075830001617,116.38075830001617,0.012498500000219792,118.31726080004591,[0.076],[-0.242],[1],[0],[0],[1.9508232999942265],['target'],940595,001,2024-10-09_00h32.10.569,untitled,2024.1.5,None,2024-10-09 00h32.13.383241 +0530,
58,0,58,0,118.34757940005511,,118.3215205000015,5,118.34757940005511,118.34757940005511,0.014622200047597289,119.9509054000373,[0.478],[0.044],[1],[0],[0],[1.614908799994737],['target'],940595,001,2024-10-09_00h32.10.569,untitled,2024.1.5,None,2024-10-09 00h32.13.383241 +0530,
59,0,59,0,119.98037030000705,,119.95469350001076,5,119.98037030000705,119.98037030000705,0.013263800006825477,121.86891240003752,[0.318],[-0.36],[1],[0],[0],[1.9008759999996983],['target'],940595,001,2024-10-09_00h32.10.569,untitled,2024.1.5,None,2024-10-09 00h32.13.383241 +0530,
60,0,60,0,121.89776930003427,,121.87268040003255,5,121.89776930003427,121.89776930003427,0.013851900002919137,124.28378510003677,[-0.202],[0.07],[1],[0],[0],[2.397012299974449],['target'],940595,001,2024-10-09_00h32.10.569,untitled,2024.1.5,None,2024-10-09 00h32.13.383241 +0530,
61,0,61,0,124.31457270000828,,124.2879580000299,5,124.31457270000828,124.31457270000828,0.015963399957399815,126.26840090000769,[-0.23],[0.318],[1],[0],[0],[1.9646338000311516],['target'],940595,001,2024-10-09_00h32.10.569,untitled,2024.1.5,None,2024-10-09 00h32.13.383241 +0530,
62,0,62,0,126.31436020002002,,126.2722973000491,10,126.31436020002002,126.31436020002002,0.027810600004158914,128.06668510002783,[-0.302],[0.206],[1],[0],[0],[1.7664545999723487],['target'],940595,001,2024-10-09_00h32.10.569,untitled,2024.1.5,None,2024-10-09 00h32.13.383241 +0530,
63,0,63,0,128.09763070003828,,128.07013960002223,5,128.09763070003828,128.09763070003828,0.012979899998754263,130.21763400000054,[-0.012],[-0.46],[1],[0],[0],[2.134539600054268],['target'],940595,001,2024-10-09_00h32.10.569,untitled,2024.1.5,None,2024-10-09 00h32.13.383241 +0530,
64,0,64,0,130.24804800003767,,130.22173020004993,5,130.24804800003767,130.24804800003767,0.014375200029462576,132.15034079999896,[0.46],[0.444],[1],[0],[0],[1.9142022999585606],['target'],940595,001,2024-10-09_00h32.10.569,untitled,2024.1.5,None,2024-10-09 00h32.13.383241 +0530,
65,0,65,0,132.19767950003734,,132.15449390001595,10,132.19767950003734,132.19767950003734,0.026278200035449117,134.55210170004284,[-0.264],[-0.238],[1],[0],[0],[2.3714479000191204],['target'],940595,001,2024-10-09_00h32.10.569,untitled,2024.1.5,None,2024-10-09 00h32.13.383241 +0530,
66,0,66,0,134.59722460003104,,134.55625710001914,10,134.59722460003104,134.59722460003104,0.02746030001435429,136.58399210002972,[0.276],[-0.004],[1],[0],[0],[2.0005633999826387],['target'],940595,001,2024-10-09_00h32.10.569,untitled,2024.1.5,None,2024-10-09 00h32.13.383241 +0530,
67,0,67,0,136.61400990001857,,136.58720280003035,5,136.61400990001857,136.61400990001857,0.013088300009258091,138.50113780004904,[0.204],[-0.23],[1],[0],[0],[1.9007099000154994],['target'],940595,001,2024-10-09_00h32.10.569,untitled,2024.1.5,None,2024-10-09 00h32.13.383241 +0530,
68,0,68,0,138.54749630001606,,138.5052778000245,10,138.54749630001606,138.54749630001606,0.02385389996925369,140.58348020003177,[-0.234],[0.13],[1],[0],[0],[2.054447499976959],['target'],940595,001,2024-10-09_00h32.10.569,untitled,2024.1.5,None,2024-10-09 00h32.13.383241 +0530,
69,0,69,0,140.63061770005152,,140.58759730000747,10,140.63061770005152,140.63061770005152,0.026168399956077337,142.31720109999878,[-0.096],[-0.088],[1],[0],[0],[1.7037214000010863],['target'],940595,001,2024-10-09_00h32.10.569,untitled,2024.1.5,None,2024-10-09 00h32.13.383241 +0530,
70,0,70,0,142.34785540000303,,142.31964330002666,5,142.34785540000303,142.34785540000303,0.012432500021532178,143.9528021000442,[-0.286],[-0.306],[1],[0],[0],[1.6202427999814972],['target'],940595,001,2024-10-09_00h32.10.569,untitled,2024.1.5,None,2024-10-09 00h32.13.383241 +0530,
71,0,71,0,143.99779990001116,,143.9568504000199,10,143.99779990001116,143.99779990001116,0.024884400016162544,146.44966010004282,[0.078],[-0.322],[1],[0],[0],[2.468191099993419],['target'],940595,001,2024-10-09_00h32.10.569,untitled,2024.1.5,None,2024-10-09 00h32.13.383241 +0530,
72,0,72,0,146.48112690000562,,146.4521297000465,5,146.48112690000562,146.48112690000562,0.012034600018523633,148.6006200000411,[0.47],[-0.132],[1],[0],[0],[2.1362115999800153],['target'],940595,001,2024-10-09_00h32.10.569,untitled,2024.1.5,None,2024-10-09 00h32.13.383241 +0530,
73,0,73,0,148.63149290002184,,148.6047966000042,5,148.63149290002184,148.63149290002184,0.016409399977419525,150.7186711000395,[-0.246],[-0.428],[1],[0],[0],[2.0975445000221953],['target'],940595,001,2024-10-09_00h32.10.569,untitled,2024.1.5,None,2024-10-09 00h32.13.383241 +0530,
74,0,74,0,150.76428140001372,,150.72302800003672,10,150.76428140001372,150.76428140001372,0.02406000002520159,152.56656840001233,[-0.346],[-0.244],[1],[0],[0],[1.8195600000326522],['target'],940595,001,2024-10-09_00h32.10.569,untitled,2024.1.5,None,2024-10-09 00h32.13.383241 +0530,
75,0,75,0,152.63075830001617,,152.57019940001192,10,152.63075830001617,152.63075830001617,0.031870000006165355,154.50030569999944,[-0.118],[-0.14],[1],[0],[0],[1.8982458999962546],['target'],940595,001,2024-10-09_00h32.10.569,untitled,2024.1.5,None,2024-10-09 00h32.13.383241 +0530,
76,0,76,0,154.53125090000685,,154.50304590002634,5,154.53125090000685,154.53125090000685,0.012004400021396577,156.9669444000465,[0.068],[0.15],[1],[0],[0],[2.4517772999824956],['target'],940595,001,2024-10-09_00h32.10.569,untitled,2024.1.5,None,2024-10-09 00h32.13.383241 +0530,
77,0,77,0,157.01454810000723,,156.9710232000216,5,157.01454810000723,157.01454810000723,0.022215900011360645,159.0672360000317,[0.346],[0.47],[1],[0],[0],[2.074116999981925],['target'],940595,001,2024-10-09_00h32.10.569,untitled,2024.1.5,None,2024-10-09 00h32.13.383241 +0530,
78,0,78,0,159.11439110001083,,159.0713301000069,10,159.11439110001083,159.11439110001083,0.023469300009310246,161.41706030000933,[0.178],[-0.236],[1],[0],[0],[2.322260399989318],['target'],940595,001,2024-10-09_00h32.10.569,untitled,2024.1.5,None,2024-10-09 00h32.13.383241 +0530,
79,0,79,0,161.44788150000386,,161.42139810003573,5,161.44788150000386,161.44788150000386,0.01481459999922663,163.61862800002564,[0.26],[0.464],[1],[0],[0],[2.182590899989009],['target'],940595,001,2024-10-09_00h32.10.569,untitled,2024.1.5,None,2024-10-09 00h32.13.383241 +0530,
80,0,80,0,163.6644293999998,,163.62291110004298,10,163.6644293999998,163.6644293999998,0.025136300013400614,166.15092420001747,[-0.308],[0.272],[1],[0],[0],[2.5029893000028096],['target'],940595,001,2024-10-09_00h32.10.569,untitled,2024.1.5,None,2024-10-09 00h32.13.383241 +0530,
81,0,81,0,166.18227160000242,,166.15444400004344,5,166.18227160000242,166.18227160000242,0.013992800028063357,168.61800940003013,[0.016],[0.454],[1],[0],[0],[2.4496932000038214],['target'],940595,001,2024-10-09_00h32.10.569,untitled,2024.1.5,None,2024-10-09 00h32.13.383241 +0530,
82,0,82,0,168.64783970004646,,168.62226690002717,5,168.64783970004646,168.64783970004646,0.015181599999777973,171.08555660001002,[0.264],[-0.062],[1],[0],[0],[2.4483691999921575],['target'],940595,001,2024-10-09_00h32.10.569,untitled,2024.1.5,None,2024-10-09 00h32.13.383241 +0530,
83,0,83,0,171.11567980004475,,171.0896174000227,5,171.11567980004475,171.11567980004475,0.013951400003861636,172.88399390003178,[0.332],[0.232],[1],[0],[0],[1.780473999970127],['target'],940595,001,2024-10-09_00h32.10.569,untitled,2024.1.5,None,2024-10-09 00h32.13.383241 +0530,
84,0,84,0,172.9310088000493,,172.88807230000384,10,172.9310088000493,172.9310088000493,0.02381079999031499,176.2516825000057,[0.028],[0.392],[1],[0],[0],[3.339911699993536],['target'],940595,001,2024-10-09_00h32.10.569,untitled,2024.1.5,None,2024-10-09 00h32.13.383241 +0530,
85,0,85,0,176.28118950000498,,176.25588040001458,5,176.28118950000498,176.28118950000498,0.014340699999593198,178.13570420001633,[0.312],[0.344],[1],[0],[0],[1.865806200017687],['target'],940595,001,2024-10-09_00h32.10.569,untitled,2024.1.5,None,2024-10-09 00h32.13.383241 +0530,
86,0,86,0,178.16454389999853,,178.1392936000484,5,178.16454389999853,178.16454389999853,0.012860900023952127,180.33388440002454,[-0.372],[-0.18],[1],[0],[0],[2.181560900004115],['target'],940595,001,2024-10-09_00h32.10.569,untitled,2024.1.5,None,2024-10-09 00h32.13.383241 +0530,
87,0,87,0,180.38087730004918,,180.33808690001024,10,180.38087730004918,180.38087730004918,0.0251132000121288,182.20049519999884,[0.206],[0.292],[1],[0],[0],[1.8374300000141375],['target'],940595,001,2024-10-09_00h32.10.569,untitled,2024.1.5,None,2024-10-09 00h32.13.383241 +0530,
88,0,88,0,182.23165150004206,,182.2029765000334,5,182.23165150004206,182.23165150004206,0.011942900018766522,184.38435560005018,[0.192],[0.356],[1],[0],[0],[2.1691834999946877],['target'],940595,001,2024-10-09_00h32.10.569,untitled,2024.1.5,None,2024-10-09 00h32.13.383241 +0530,
89,0,89,0,184.4145489000366,,184.3884434000356,5,184.4145489000366,184.4145489000366,0.014802500023506582,186.6670587999979,[-0.494],[0.278],[1],[0],[0],[2.2639338999870233],['target'],940595,001,2024-10-09_00h32.10.569,untitled,2024.1.5,None,2024-10-09 00h32.13.383241 +0530,
90,0,90,0,186.71463020000374,,186.67146770004183,10,186.71463020000374,186.71463020000374,0.02471139997942373,189.4835466000368,[0.282],[0.452],[1],[0],[0],[2.7876305999816395],['target'],940595,001,2024-10-09_00h32.10.569,untitled,2024.1.5,None,2024-10-09 00h32.13.383241 +0530,
91,0,91,0,189.53138490003766,,189.48770880000666,10,189.53138490003766,189.53138490003766,0.024935699999332428,192.18525560002308,[0.364],[-0.426],[1],[0],[0],[2.672739500005264],['target'],940595,001,2024-10-09_00h32.10.569,untitled,2024.1.5,None,2024-10-09 00h32.13.383241 +0530,
92,0,92,0,192.2312012000475,,192.18902590003563,10,192.2312012000475,192.2312012000475,0.02321529999608174,195.55141470005037,[0.262],[0.202],[1],[0],[0],[3.339131799992174],['target'],940595,001,2024-10-09_00h32.10.569,untitled,2024.1.5,None,2024-10-09 00h32.13.383241 +0530,
93,0,93,0,195.58113510004478,,195.55388380005024,5,195.58113510004478,195.58113510004478,0.012473400041926652,198.53568500000983,[0.486],[0.056],[1],[0],[0],[2.9691864000051282],['target'],940595,001,2024-10-09_00h32.10.569,untitled,2024.1.5,None,2024-10-09 00h32.13.383241 +0530,
94,0,94,0,198.58130200003507,,198.539710400044,10,198.58130200003507,198.58130200003507,0.02431329997489229,201.50103939999826,[0.362],[-0.47],[1],[0],[0],[2.9371694999863394],['target'],940595,001,2024-10-09_00h32.10.569,untitled,2024.1.5,None,2024-10-09 00h32.13.383241 +0530,
95,0,95,0,201.54756260005524,,201.503417800006,10,201.54756260005524,201.54756260005524,0.022956900007557124,203.40011670003878,[-0.372],[-0.24],[1],[0],[0],[1.8735252000042237],['target'],940595,001,2024-10-09_00h32.10.569,untitled,2024.1.5,None,2024-10-09 00h32.13.383241 +0530,
96,0,96,0,203.44785260001663,,203.4034673999995,10,203.44785260001663,203.44785260001663,0.02777579997200519,205.6849629000062,[-0.498],[0.246],[1],[0],[0],[2.2537736000376754],['target'],940595,001,2024-10-09_00h32.10.569,untitled,2024.1.5,None,2024-10-09 00h32.13.383241 +0530,
97,0,97,0,205.71409080002923,,205.68767500005197,5,205.71409080002923,205.71409080002923,0.01582660002168268,209.16813130001538,[0.18],[-0.19],[1],[0],[0],[3.4643279000301845],['target'],940595,001,2024-10-09_00h32.10.569,untitled,2024.1.5,None,2024-10-09 00h32.13.383241 +0530,
98,0,98,0,209.21417940000538,,209.1717684000032,10,209.21417940000538,209.21417940000538,0.024168500036466867,211.4659516000538,[0.048],[-0.18],[1],[0],[0],[2.269994599977508],['target'],940595,001,2024-10-09_00h32.10.569,untitled,2024.1.5,None,2024-10-09 00h32.13.383241 +0530,
99,0,99,0,211.4978911000071,,211.47013180004433,5,211.4978911000071,211.4978911000071,0.015022800012957305,213.8171004000469,[-0.364],[0.498],[1],[0],[0],[2.332133600022644],['target'],940595,001,2024-10-09_00h32.10.569,untitled,2024.1.5,None,2024-10-09 00h32.13.383241 +0530,
100,0,100,0,213.88078890001634,,213.82078870001715,10,213.88078890001634,213.88078890001634,0.023315600003115833,215.667178600037,[0.132],[0.08],[1],[0],[0],[1.8230759999714792],['target'],940595,001,2024-10-09_00h32.10.569,untitled,2024.1.5,None,2024-10-09 00h32.13.383241 +0530,
101,0,101,0,215.71416530001443,,215.67153420002433,10,215.71416530001443,215.71416530001443,0.02352170000085607,218.88384470000165,[-0.354],[-0.192],[1],[0],[0],[3.1890649999841116],['target'],940595,001,2024-10-09_00h32.10.569,untitled,2024.1.5,None,2024-10-09 00h32.13.383241 +0530,
102,0,102,0,218.93140739999944,,218.88663350004936,10,218.93140739999944,218.93140739999944,0.022841099998913705,221.28385520004667,[0.434],[0.26],[1],[0],[0],[2.3743615999701433],['target'],940595,001,2024-10-09_00h32.10.569,untitled,2024.1.5,None,2024-10-09 00h32.13.383241 +0530,
103,0,103,0,221.33157130004838,,221.28622500004712,10,221.33157130004838,221.33157130004838,0.023118300014175475,223.40041460003704,[0.196],[-0.172],[1],[0],[0],[2.090872200031299],['target'],940595,001,2024-10-09_00h32.10.569,untitled,2024.1.5,None,2024-10-09 00h32.13.383241 +0530,
104,0,104,0,223.44755640003132,,223.40353820001474,10,223.44755640003132,223.44755640003132,0.02257650002138689,226.2687833000091,[-0.306],[-0.09],[1],[0],[0],[2.842673700011801],['target'],940595,001,2024-10-09_00h32.10.569,untitled,2024.1.5,None,2024-10-09 00h32.13.383241 +0530,
105,0,105,0,226.31513140001334,,226.2729891000199,10,226.31513140001334,226.31513140001334,0.026435300009325147,228.0835360000492,[-0.268],[0.092],[1],[0],[0],[1.784352399990894],['target'],940595,001,2024-10-09_00h32.10.569,untitled,2024.1.5,None,2024-10-09 00h32.13.383241 +0530,
106,0,106,0,228.1309411000111,,228.08757970004808,10,228.1309411000111,228.1309411000111,0.02574599999934435,230.5836775000207,[-0.476],[0.14],[1],[0],[0],[2.4703854999970645],['target'],940595,001,2024-10-09_00h32.10.569,untitled,2024.1.5,None,2024-10-09 00h32.13.383241 +0530,
107,0,107,0,230.6144336000434,,230.58639770001173,5,230.6144336000434,230.6144336000434,0.012476000003516674,232.66800530004548,[0.374],[-0.246],[1],[0],[0],[2.068847199960146],['target'],940595,001,2024-10-09_00h32.10.569,untitled,2024.1.5,None,2024-10-09 00h32.13.383241 +0530,
108,0,108,0,232.69779790000757,,232.67196820001118,5,232.69779790000757,232.69779790000757,0.013487599964719266,234.5694515000214,[-0.198],[0.174],[1],[0],[0],[1.8840803000493906],['target'],940595,001,2024-10-09_00h32.10.569,untitled,2024.1.5,None,2024-10-09 00h32.13.383241 +0530,
109,0,109,0,234.61448970000492,,234.57368660002248,10,234.61448970000492,234.61448970000492,0.025820299983024597,237.00281370000448,[-0.254],[0.1],[1],[0],[0],[2.4034849999588914],['target'],940595,001,2024-10-09_00h32.10.569,untitled,2024.1.5,None,2024-10-09 00h32.13.383241 +0530,
110,0,110,0,237.03146900003776,,237.0063287000521,5,237.03146900003776,237.03146900003776,0.013218300009611994,238.9517866000533,[0.046],[-0.42],[1],[0],[0],[1.9321572000044398],['target'],940595,001,2024-10-09_00h32.10.569,untitled,2024.1.5,None,2024-10-09 00h32.13.383241 +0530,
111,0,111,0,238.98193220002577,,238.95536260004155,5,238.98193220002577,238.98193220002577,0.01234620000468567,240.8840365000069,[0.474],[-0.4],[1],[0],[0],[1.916024899983313],['target'],940595,001,2024-10-09_00h32.10.569,untitled,2024.1.5,None,2024-10-09 00h32.13.383241 +0530,
112,0,112,0,240.91469960001996,,240.88814420002745,5,240.91469960001996,240.91469960001996,0.013894899981096387,243.15331340004923,[0.122],[-0.466],[1],[0],[0],[2.2515270999865606],['target'],940595,001,2024-10-09_00h32.10.569,untitled,2024.1.5,None,2024-10-09 00h32.13.383241 +0530,
113,0,113,0,243.19773170002736,,243.15706850000424,10,243.19773170002736,243.19773170002736,0.025955400022212416,245.21885310002835,[0.14],[-0.232],[1],[0],[0],[2.0359872999833897],['target'],940595,001,2024-10-09_00h32.10.569,untitled,2024.1.5,None,2024-10-09 00h32.13.383241 +0530,
114,0,114,0,245.2481020000414,,245.22148410003865,5,245.2481020000414,245.2481020000414,0.012578499969094992,247.41778470005374,[-0.348],[0.474],[1],[0],[0],[2.1834400999941863],['target'],940595,001,2024-10-09_00h32.10.569,untitled,2024.1.5,None,2024-10-09 00h32.13.383241 +0530,
115,0,115,0,247.46461419999832,,247.42200690001482,10,247.46461419999832,247.46461419999832,0.023896200000308454,249.48396350000985,[-0.082],[0.256],[1],[0],[0],[2.0383489999803714],['target'],940595,001,2024-10-09_00h32.10.569,untitled,2024.1.5,None,2024-10-09 00h32.13.383241 +0530,
116,0,116,0,249.53091530001257,,249.48642170004314,10,249.53091530001257,249.53091530001257,0.023565299983602017,251.86677490000147,[0.378],[-0.068],[1],[0],[0],[2.356491599988658],['target'],940595,001,2024-10-09_00h32.10.569,untitled,2024.1.5,None,2024-10-09 00h32.13.383241 +0530,
117,0,117,0,251.89865180000197,,251.87099740002304,5,251.89865180000197,251.89865180000197,0.015564900008030236,254.43426580005325,[0.088],[-0.436],[1],[0],[0],[2.5476971000316553],['target'],940595,001,2024-10-09_00h32.10.569,untitled,2024.1.5,None,2024-10-09 00h32.13.383241 +0530,
118,0,118,0,254.46465040004114,,254.43849800003227,5,254.46465040004114,254.46465040004114,0.01629200001480058,256.55089450004743,[0.076],[-0.428],[1],[0],[0],[2.0961360999499448],['target'],940595,001,2024-10-09_00h32.10.569,untitled,2024.1.5,None,2024-10-09 00h32.13.383241 +0530,
119,0,119,0,256.5975838000304,,256.55502349999733,10,256.5975838000304,256.5975838000304,0.027333400037605315,258.33473120001145,[-0.202],[0.256],[1],[0],[0],[1.7526004999526776],['target'],940595,001,2024-10-09_00h32.10.569,untitled,2024.1.5,None,2024-10-09 00h32.13.383241 +0530,
120,0,120,0,258.3647268000059,,258.33754230005434,5,258.3647268000059,258.3647268000059,0.01320689998101443,260.30285430001095,[-0.144],[0.004],[1],[0],[0],[1.9518504000152461],['target'],940595,001,2024-10-09_00h32.10.569,untitled,2024.1.5,None,2024-10-09 00h32.13.383241 +0530,
121,0,121,0,260.34849130001385,,260.30704670003615,5,260.34849130001385,260.34849130001385,0.014899700006935745,262.56877860001987,[-0.25],[0.474],[1],[0],[0],[2.2470454000285827],['target'],940595,001,2024-10-09_00h32.10.569,untitled,2024.1.5,None,2024-10-09 00h32.13.383241 +0530,
122,0,122,0,262.61448550003115,,262.572662200022,10,262.61448550003115,262.61448550003115,0.02594720001798123,264.68364200001815,[-0.076],[0.096],[1],[0],[0],[2.085097399947699],['target'],940595,001,2024-10-09_00h32.10.569,untitled,2024.1.5,None,2024-10-09 00h32.13.383241 +0530,
123,0,123,0,264.731784100004,,264.68596980004804,10,264.731784100004,264.731784100004,0.0225501999957487,266.5172527000541,[-0.318],[-0.19],[1],[0],[0],[1.808580900018569],['target'],940595,001,2024-10-09_00h32.10.569,untitled,2024.1.5,None,2024-10-09 00h32.13.383241 +0530,
124,0,124,0,266.5645039000083,,266.5209646000294,10,266.5645039000083,266.5645039000083,0.023200999945402145,268.48495750001166,[0.268],[0.278],[1],[0],[0],[1.9409285999718122],['target'],940595,001,2024-10-09_00h32.10.569,untitled,2024.1.5,None,2024-10-09 00h32.13.383241 +0530,
125,0,125,0,268.51432300003944,,268.4886430000188,5,268.51432300003944,268.51432300003944,0.014241400000173599,270.93683000002056,[0.464],[-0.232],[1],[0],[0],[2.4340685000061058],['target'],940595,001,2024-10-09_00h32.10.569,untitled,2024.1.5,None,2024-10-09 00h32.13.383241 +0530,
126,0,126,0,270.9816900000442,,270.94027060002554,10,270.9816900000442,270.9816900000442,0.022971800004597753,272.93363370001316,[0.036],[-0.276],[1],[0],[0],[1.9703246999997646],['target'],940595,001,2024-10-09_00h32.10.569,untitled,2024.1.5,None,2024-10-09 00h32.13.383241 +0530,
127,0,127,0,272.96445120003773,,272.9362375000492,5,272.96445120003773,272.96445120003773,0.012307400000281632,275.1844631000422,[0.446],[0.374],[1],[0],[0],[2.2359660000074655],['target'],940595,001,2024-10-09_00h32.10.569,untitled,2024.1.5,None,2024-10-09 00h32.13.383241 +0530,
128,0,128,0,275.21475880005164,,275.188639400003,5,275.21475880005164,275.21475880005164,0.01382330001797527,276.9522223000531,[-0.05],[-0.092],[1],[0],[0],[1.750069400004577],['target'],940595,001,2024-10-09_00h32.10.569,untitled,2024.1.5,None,2024-10-09 00h32.13.383241 +0530,
129,0,129,0,276.98132290004287,,276.95522600004915,5,276.98132290004287,276.98132290004287,0.015797799977008253,279.85229410004104,[-0.342],[-0.208],[1],[0],[0],[2.880962100054603],['target'],940595,001,2024-10-09_00h32.10.569,untitled,2024.1.5,None,2024-10-09 00h32.13.383241 +0530,
130,0,130,0,279.8987283000024,,279.8565285000368,10,279.8987283000024,279.8987283000024,0.02504680003039539,281.7504411000409,[-0.212],[-0.07],[1],[0],[0],[1.8690467000124045],['target'],940595,001,2024-10-09_00h32.10.569,untitled,2024.1.5,None,2024-10-09 00h32.13.383241 +0530,
131,0,131,0,281.7986444000271,,281.75469010003144,10,281.7986444000271,281.7986444000271,0.029133900010492653,284.42062810005154,[-0.086],[0.252],[1],[0],[0],[2.6370080999913625],['target'],940595,001,2024-10-09_00h32.10.569,untitled,2024.1.5,None,2024-10-09 00h32.13.383241 +0530,
132,0,132,0,284.46498490002705,,284.42479610000737,10,284.46498490002705,284.46498490002705,0.026360800024122,286.63414580002427,[-0.5],[0.198],[1],[0],[0],[2.1830949999857694],['target'],940595,001,2024-10-09_00h32.10.569,untitled,2024.1.5,None,2024-10-09 00h32.13.383241 +0530,
133,0,133,0,286.66417340002954,,286.6376800000435,5,286.66417340002954,286.66417340002954,0.018940099980682135,288.46917520003626,[-0.396],[0.202],[1],[0],[0],[1.8125490000238642],['target'],940595,001,2024-10-09_00h32.10.569,untitled,2024.1.5,None,2024-10-09 00h32.13.383241 +0530,
134,0,134,0,288.5145342000178,,288.4732262000325,10,288.5145342000178,288.5145342000178,0.024837000004481524,290.41910500003723,[-0.336],[-0.086],[1],[0],[0],[1.9211519000236876],['target'],940595,001,2024-10-09_00h32.10.569,untitled,2024.1.5,None,2024-10-09 00h32.13.383241 +0530,
135,0,135,0,290.4481412000023,,290.4229112000321,5,290.4481412000023,290.4481412000023,0.013638900010846555,292.6513715000474,[0.206],[-0.388],[1],[0],[0],[2.214799400011543],['target'],940595,001,2024-10-09_00h32.10.569,untitled,2024.1.5,None,2024-10-09 00h32.13.383241 +0530,
136,0,136,0,292.6979673000169,,292.65550990001066,10,292.6979673000169,292.6979673000169,0.026634400011971593,295.0508467000327,[0.018],[-0.194],[1],[0],[0],[2.3688924000016414],['target'],940595,001,2024-10-09_00h32.10.569,untitled,2024.1.5,None,2024-10-09 00h32.13.383241 +0530,
137,0,137,0,295.0980099000153,,295.0548156000441,10,295.0980099000153,295.0980099000153,0.0241694999858737,298.63625390001107,[-0.296],[0.478],[1],[0],[0],[3.5574613999924622],['target'],940595,001,2024-10-09_00h32.10.569,untitled,2024.1.5,None,2024-10-09 00h32.13.383241 +0530,
138,0,138,0,298.66450970002916,,298.6408744000364,5,298.66450970002916,298.66450970002916,0.014634800027124584,300.8018817999982,[-0.35],[-0.04],[1],[0],[0],[2.1471483999630436],['target'],940595,001,2024-10-09_00h32.10.569,untitled,2024.1.5,None,2024-10-09 00h32.13.383241 +0530,
139,0,139,0,300.831663900055,,300.80612620001193,5,300.831663900055,300.831663900055,0.014428500027861446,302.8188525000005,[0.244],[-0.33],[1],[0],[0],[1.99841749999905],['target'],940595,001,2024-10-09_00h32.10.569,untitled,2024.1.5,None,2024-10-09 00h32.13.383241 +0530,
140,0,140,0,302.8645571000525,,302.8232816000236,10,302.8645571000525,302.8645571000525,0.025340499996673316,305.102655900002,[0.126],[0.184],[1],[0],[0],[2.254139899974689],['target'],940595,001,2024-10-09_00h32.10.569,untitled,2024.1.5,None,2024-10-09 00h32.13.383241 +0530,
141,0,141,0,305.14832770003704,,305.1066159000038,10,305.14832770003704,305.14832770003704,0.024592700006905943,307.76852000004146,[0.446],[0.188],[1],[0],[0],[2.637535400048364],['target'],940595,001,2024-10-09_00h32.10.569,untitled,2024.1.5,None,2024-10-09 00h32.13.383241 +0530,
142,0,142,0,307.79835740005365,,307.77200510003604,5,307.79835740005365,307.79835740005365,0.015752899984363467,310.2031946000061,[0.404],[-0.484],[1],[0],[0],[2.415476599999238],['target'],940595,001,2024-10-09_00h32.10.569,untitled,2024.1.5,None,2024-10-09 00h32.13.383241 +0530,
143,0,143,0,310.23136250005336,,310.2073378000059,5,310.23136250005336,310.23136250005336,0.013906000007409602,312.8181588000152,[-0.436],[-0.244],[1],[0],[0],[2.5971075000124983],['target'],940595,001,2024-10-09_00h32.10.569,untitled,2024.1.5,None,2024-10-09 00h32.13.383241 +0530,
144,0,144,0,312.8649977000314,,312.82244320004247,5,312.8649977000314,312.8649977000314,0.01603080000495538,314.9506306000403,[0.496],[-0.15],[1],[0],[0],[2.112463299999945],['target'],940595,001,2024-10-09_00h32.10.569,untitled,2024.1.5,None,2024-10-09 00h32.13.383241 +0530,
145,0,145,0,314.9814463000512,,314.9548896000488,5,314.9814463000512,314.9814463000512,0.014079899992793798,317.5187520000036,[0.172],[0.49],[1],[0],[0],[2.5499777999939397],['target'],940595,001,2024-10-09_00h32.10.569,untitled,2024.1.5,None,2024-10-09 00h32.13.383241 +0530,
146,0,146,0,317.5643206000095,,317.52301180001814,10,317.5643206000095,317.5643206000095,0.027133500028867275,319.968250200036,[-0.108],[-0.292],[1],[0],[0],[2.4183066000114195],['target'],940595,001,2024-10-09_00h32.10.569,untitled,2024.1.5,None,2024-10-09 00h32.13.383241 +0530,
147,0,147,0,319.99815749999834,,319.9718953000265,5,319.99815749999834,319.99815749999834,0.012752500013448298,321.9844826000044,[-0.268],[-0.38],[1],[0],[0],[1.9998410000116564],['target'],940595,001,2024-10-09_00h32.10.569,untitled,2024.1.5,None,2024-10-09 00h32.13.383241 +0530,
148,0,148,0,322.0313833000255,,321.9886777000502,10,322.0313833000255,322.0313833000255,0.025227600010111928,324.80325300002005,[-0.318],[0.236],[1],[0],[0],[2.7894748999970034],['target'],940595,001,2024-10-09_00h32.10.569,untitled,2024.1.5,None,2024-10-09 00h32.13.383241 +0530,
149,0,149,0,324.8312228000141,,324.8074135000352,5,324.8312228000141,324.8312228000141,0.014342400012537837,326.7192941000103,[-0.088],[-0.174],[1],[0],[0],[1.8978023999952711],['target'],940595,001,2024-10-09_00h32.10.569,untitled,2024.1.5,None,2024-10-09 00h32.13.383241 +0530,
150,0,150,0,326.7479738999973,,326.72331670002313,5,326.7479738999973,326.7479738999973,0.013524700014386326,328.96710930002155,[-0.478],[-0.318],[1],[0],[0],[2.2303793999599293],['target'],940595,001,2024-10-09_00h32.10.569,untitled,2024.1.5,None,2024-10-09 00h32.13.383241 +0530,
151,0,151,0,329.0151495000464,,328.97048150002956,10,329.0151495000464,329.0151495000464,0.025961900013498962,331.6688518000301,[0.198],[0.396],[1],[0],[0],[2.6726007999968715],['target'],940595,001,2024-10-09_00h32.10.569,untitled,2024.1.5,None,2024-10-09 00h32.13.383241 +0530,
152,0,152,0,331.69796720001614,,331.6713430000236,5,331.69796720001614,331.69796720001614,0.013228599971625954,335.18532560003223,[-0.254],[0.096],[1],[0],[0],[3.5005160000291653],['target'],940595,001,2024-10-09_00h32.10.569,untitled,2024.1.5,None,2024-10-09 00h32.13.383241 +0530,
153,0,153,0,335.21539140003733,,335.18944080005167,5,335.21539140003733,335.21539140003733,0.013385199999902397,337.76843650004594,[0.332],[-0.346],[1],[0],[0],[2.5656483999919146],['target'],940595,001,2024-10-09_00h32.10.569,untitled,2024.1.5,None,2024-10-09 00h32.13.383241 +0530,
154,0,154,0,337.81497920001857,,337.7720466000028,10,337.81497920001857,337.81497920001857,0.02721730002667755,339.76854509999976,[0.426],[0.41],[1],[0],[0],[1.9691865000058897],['target'],940595,001,2024-10-09_00h32.10.569,untitled,2024.1.5,None,2024-10-09 00h32.13.383241 +0530,
155,0,155,0,339.79835940001067,,339.77290229999926,5,339.79835940001067,339.79835940001067,0.013840800034813583,342.65258190000895,[-0.378],[0.042],[1],[0],[0],[2.8661801000125706],['target'],940595,001,2024-10-09_00h32.10.569,untitled,2024.1.5,None,2024-10-09 00h32.13.383241 +0530,
156,0,156,0,342.6979153000284,,342.6563413000549,10,342.6979153000284,342.6979153000284,0.024292899994179606,345.1507285000407,[0.02],[-0.226],[1],[0],[0],[2.470165199949406],['target'],940595,001,2024-10-09_00h32.10.569,untitled,2024.1.5,None,2024-10-09 00h32.13.383241 +0530,
157,0,157,0,345.1814003000036,,345.15500230004545,5,345.1814003000036,345.1814003000036,0.015186999982688576,347.0696072000428,[-0.36],[-0.446],[1],[0],[0],[1.8996015000157058],['target'],940595,001,2024-10-09_00h32.10.569,untitled,2024.1.5,None,2024-10-09 00h32.13.383241 +0530,
158,0,158,0,347.098521900014,,347.07236920000287,5,347.098521900014,347.098521900014,0.011784000031184405,348.7182341000298,[-0.37],[0.0],[1],[0],[0],[1.6338296000030823],['target'],940595,001,2024-10-09_00h32.10.569,untitled,2024.1.5,None,2024-10-09 00h32.13.383241 +0530,
159,0,159,0,348.7652685000212,,348.7222839000169,10,348.7652685000212,348.7652685000212,0.02312189998337999,353.6691480000154,[-0.068],[0.482],[1],[0],[0],[4.923706100031268],['target'],940595,001,2024-10-09_00h32.10.569,untitled,2024.1.5,None,2024-10-09 00h32.13.383241 +0530,
160,0,160,0,353.7149007000262,,353.67343220004113,10,353.7149007000262,353.7149007000262,0.024921200005337596,356.567336600041,[-0.078],[-0.436],[1],[0],[0],[2.8691560000297613],['target'],940595,001,2024-10-09_00h32.10.569,untitled,2024.1.5,None,2024-10-09 00h32.13.383241 +0530,
161,0,161,0,356.6148220000323,,356.5696623000549,10,356.6148220000323,356.6148220000323,0.022042299970053136,359.3339370000176,[-0.452],[0.45],[1],[0],[0],[2.7420308999717236],['target'],940595,001,2024-10-09_00h32.10.569,untitled,2024.1.5,None,2024-10-09 00h32.13.383241 +0530,
162,0,162,0,359.3813769000117,,359.3363199000014,10,359.3813769000117,359.3813769000117,0.022746199974790215,361.60154380003223,[-0.246],[-0.044],[1],[0],[0],[2.24232880002819],['target'],940595,001,2024-10-09_00h32.10.569,untitled,2024.1.5,None,2024-10-09 00h32.13.383241 +0530,
163,0,163,0,361.6318060000194,,361.6053640000173,5,361.6318060000194,361.6318060000194,0.013610500027425587,363.6511050000554,[-0.428],[-0.296],[1],[0],[0],[2.032236200000625],['target'],940595,001,2024-10-09_00h32.10.569,untitled,2024.1.5,None,2024-10-09 00h32.13.383241 +0530,
164,0,164,0,363.698640800023,,363.65529030002654,10,363.698640800023,363.698640800023,0.02539900003466755,365.28403510001954,[-0.228],[0.472],[1],[0],[0],[1.603529800020624],['target'],940595,001,2024-10-09_00h32.10.569,untitled,2024.1.5,None,2024-10-09 00h32.13.383241 +0530,
165,0,165,0,365.3150128000416,,365.2882183000329,5,365.3150128000416,365.3150128000416,0.014569199993275106,367.25231700000586,[0.424],[-0.168],[1],[0],[0],[1.9495872000115924],['target'],940595,001,2024-10-09_00h32.10.569,untitled,2024.1.5,None,2024-10-09 00h32.13.383241 +0530,
166,0,166,0,367.2979169000173,,367.2566092000343,10,367.2979169000173,367.2979169000173,0.024977199966087937,369.30003080004826,[-0.292],[-0.13],[1],[0],[0],[2.01875700004166],['target'],940595,001,2024-10-09_00h32.10.569,untitled,2024.1.5,None,2024-10-09 00h32.13.383241 +0530,
167,0,167,0,369.331561900035,,369.30434430000605,5,369.331561900035,369.331561900035,0.016422799963038415,371.61817440000596,[0.382],[0.476],[1],[0],[0],[2.297664200013969],['target'],940595,001,2024-10-09_00h32.10.569,untitled,2024.1.5,None,2024-10-09 00h32.13.383241 +0530,
168,0,168,0,371.66505790001247,,371.62116950005293,10,371.66505790001247,371.66505790001247,0.022795500000938773,374.7340304000536,[-0.472],[-0.102],[1],[0],[0],[3.0900441000121646],['target'],940595,001,2024-10-09_00h32.10.569,untitled,2024.1.5,None,2024-10-09 00h32.13.383241 +0530,
169,0,169,0,374.7813654000056,,374.7371173000429,10,374.7813654000056,374.7813654000056,0.022941900009755045,377.3190828000079,[-0.118],[0.146],[1],[0],[0],[2.5589186999714],['target'],940595,001,2024-10-09_00h32.10.569,untitled,2024.1.5,None,2024-10-09 00h32.13.383241 +0530,
170,0,170,0,377.3649480000022,,377.3222542000003,10,377.3649480000022,377.3649480000022,0.023180300020612776,379.3499040000024,[0.146],[0.038],[1],[0],[0],[2.0045332000008784],['target'],940595,001,2024-10-09_00h32.10.569,untitled,2024.1.5,None,2024-10-09 00h32.13.383241 +0530,
171,0,171,0,379.38163570000324,,379.3541743000387,5,379.38163570000324,379.38163570000324,0.01619959995150566,381.319096500054,[0.01],[-0.352],[1],[0],[0],[1.9488779000239447],['target'],940595,001,2024-10-09_00h32.10.569,untitled,2024.1.5,None,2024-10-09 00h32.13.383241 +0530,
172,0,172,0,381.3480741000385,,381.32365360000404,5,381.3480741000385,381.3480741000385,0.014234100002795458,383.8369655000279,[0.342],[0.482],[1],[0],[0],[2.4992769000236876],['target'],940595,001,2024-10-09_00h32.10.569,untitled,2024.1.5,None,2024-10-09 00h32.13.383241 +0530,
173,0,173,0,383.8818614000338,,383.84118510002736,10,383.8818614000338,383.8818614000338,0.025235600012820214,385.26871120004216,[0.092],[0.182],[1],[0],[0],[1.4025495999958366],['target'],940595,001,2024-10-09_00h32.10.569,untitled,2024.1.5,None,2024-10-09 00h32.13.383241 +0530,
174,0,174,0,385.29814910003915,,385.27115280000726,5,385.29814910003915,385.29814910003915,0.012284199998248369,386.98583800002234,[-0.376],[0.116],[1],[0],[0],[1.7021621000021696],['target'],940595,001,2024-10-09_00h32.10.569,untitled,2024.1.5,None,2024-10-09 00h32.13.383241 +0530,
175,0,175,0,387.0159686000552,,386.9893190000439,5,387.0159686000552,387.0159686000552,0.013393100001849234,389.05083439999726,[0.232],[0.224],[1],[0],[0],[2.0480341999791563],['target'],940595,001,2024-10-09_00h32.10.569,untitled,2024.1.5,None,2024-10-09 00h32.13.383241 +0530,
176,0,176,0,389.0817506000167,,389.05460180004593,5,389.0817506000167,389.0817506000167,0.012951699958648533,391.06890670000575,[0.212],[-0.214],[1],[0],[0],[2.001250599976629],['target'],940595,001,2024-10-09_00h32.10.569,untitled,2024.1.5,None,2024-10-09 00h32.13.383241 +0530,
177,0,177,0,391.11509040003875,,391.0731301000342,10,391.11509040003875,391.11509040003875,0.024536399985663593,393.05114960001083,[-0.08],[-0.386],[1],[0],[0],[1.953589099983219],['target'],940595,001,2024-10-09_00h32.10.569,untitled,2024.1.5,None,2024-10-09 00h32.13.383241 +0530,
178,0,178,0,393.0819148000446,,393.05542340001557,5,393.0819148000446,393.0819148000446,0.015277999977115542,394.9011800000444,[0.43],[0.004],[1],[0],[0],[1.8307828000397421],['target'],940595,001,2024-10-09_00h32.10.569,untitled,2024.1.5,None,2024-10-09 00h32.13.383241 +0530,
179,0,179,0,394.948293100053,,394.90400650002994,10,394.948293100053,394.948293100053,0.022979100001975894,396.53411060001235,[0.074],[0.044],[1],[0],[0],[1.6069765000138432],['target'],940595,001,2024-10-09_00h32.10.569,untitled,2024.1.5,None,2024-10-09 00h32.13.383241 +0530,
180,0,180,0,396.58210180001333,,396.5376129000215,10,396.58210180001333,396.58210180001333,0.025558100023772568,399.6672925000312,"[0.116, 0.132]","[-0.384, -0.384]","[1, 1]","[0, 0]","[0, 0]","[1.7554960999987088, 3.104169300000649]",['target'],940595,001,2024-10-09_00h32.10.569,untitled,2024.1.5,None,2024-10-09 00h32.13.383241 +0530,
181,0,181,0,399.6987525000004,,399.6717989000026,5,399.6987525000004,399.6987525000004,0.015307099965866655,402.2859278000542,[-0.436],[0.364],[1],[0],[0],[2.5990045000216924],['target'],940595,001,2024-10-09_00h32.10.569,untitled,2024.1.5,None,2024-10-09 00h32.13.383241 +0530,
182,0,182,0,402.31514200003585,,402.29011540004285,5,402.31514200003585,402.31514200003585,0.014266100013628602,404.4351601000526,[0.3],[0.238],[1],[0],[0],[2.130851599969901],['target'],940595,001,2024-10-09_00h32.10.569,untitled,2024.1.5,None,2024-10-09 00h32.13.383241 +0530,
183,0,183,0,404.48195010004565,,404.43944159999955,10,404.48195010004565,404.48195010004565,0.025602500012610108,406.1685408000485,[0.292],[-0.244],[1],[0],[0],[1.7036666000494733],['target'],940595,001,2024-10-09_00h32.10.569,untitled,2024.1.5,None,2024-10-09 00h32.13.383241 +0530,
184,0,184,0,406.1982749000308,,406.1728017000132,5,406.1982749000308,406.1982749000308,0.01660569995874539,407.90270430000965,[0.272],[0.076],[1],[0],[0],[1.7133984999964014],['target'],940595,001,2024-10-09_00h32.10.569,untitled,2024.1.5,None,2024-10-09 00h32.13.383241 +0530,
185,0,185,0,407.94857410003897,,407.90614350000396,10,407.94857410003897,407.94857410003897,0.02360210003098473,410.23567650001496,[-0.378],[-0.412],[1],[0],[0],[2.3059794000000693],['target'],940595,001,2024-10-09_00h32.10.569,untitled,2024.1.5,None,2024-10-09 00h32.13.383241 +0530,
186,0,186,0,410.2821630000253,,410.2397032000008,10,410.2821630000253,410.2821630000253,0.027293399965856224,412.40053280000575,[0.126],[-0.24],[1],[0],[0],[2.133833300031256],['target'],940595,001,2024-10-09_00h32.10.569,untitled,2024.1.5,None,2024-10-09 00h32.13.383241 +0530,
187,0,187,0,412.44841320003616,,412.4047139000031,10,412.44841320003616,412.44841320003616,0.025739300006534904,414.45241080003325,[0.3],[0.36],[1],[0],[0],[2.0221897999872454],['target'],940595,001,2024-10-09_00h32.10.569,untitled,2024.1.5,None,2024-10-09 00h32.13.383241 +0530,
188,0,188,0,414.4821181000443,,414.45478870003717,5,414.4821181000443,414.4821181000443,0.012421599996741861,416.2515043000458,[0.122],[0.064],[1],[0],[0],[1.783891900035087],['target'],940595,001,2024-10-09_00h32.10.569,untitled,2024.1.5,None,2024-10-09 00h32.13.383241 +0530,
189,0,189,0,416.28164290002314,,416.25547070003813,5,416.28164290002314,416.28164290002314,0.01378619996830821,418.2676231000223,[0.042],[-0.3],[1],[0],[0],[1.9984221000340767],['target'],940595,001,2024-10-09_00h32.10.569,untitled,2024.1.5,None,2024-10-09 00h32.13.383241 +0530,
190,0,190,0,418.31502940005157,,418.27172670001164,10,418.31502940005157,418.31502940005157,0.023789399943780154,420.8194316000445,[0.302],[0.316],[1],[0],[0],[2.5238101999857463],['target'],940595,001,2024-10-09_00h32.10.569,untitled,2024.1.5,None,2024-10-09 00h32.13.383241 +0530,
191,0,191,0,420.86486170004355,,420.82358500000555,10,420.86486170004355,420.86486170004355,0.02652080002008006,422.95294400001876,[0.376],[-0.45],[1],[0],[0],[2.102841600019019],['target'],940595,001,2024-10-09_00h32.10.569,untitled,2024.1.5,None,2024-10-09 00h32.13.383241 +0530,
192,0,192,0,422.9984378000372,,422.95732070005033,10,422.9984378000372,422.9984378000372,0.025426500011235476,425.4847862000461,[-0.052],[0.484],[1],[0],[0],[2.50230890000239],['target'],940595,001,2024-10-09_00h32.10.569,untitled,2024.1.5,None,2024-10-09 00h32.13.383241 +0530,
193,0,193,0,425.51482030004263,,425.48718650004594,5,425.51482030004263,425.51482030004263,0.012798199953977019,427.46985700004734,[-0.442],[-0.22],[1],[0],[0],[1.969637000001967],['target'],940595,001,2024-10-09_00h32.10.569,untitled,2024.1.5,None,2024-10-09 00h32.13.383241 +0530,
194,0,194,0,427.49817200005054,,427.47402060002787,5,427.49817200005054,427.49817200005054,0.01366350002354011,429.7376228000503,[-0.074],[0.246],[1],[0],[0],[2.2500293999910355],['target'],940595,001,2024-10-09_00h32.10.569,untitled,2024.1.5,None,2024-10-09 00h32.13.383241 +0530,
195,0,195,0,429.78190500003984,,429.7418165000272,10,429.78190500003984,429.78190500003984,0.024983200011774898,432.5190099000465,[-0.014],[0.418],[1],[0],[0],[2.7523566000163555],['target'],940595,001,2024-10-09_00h32.10.569,untitled,2024.1.5,None,2024-10-09 00h32.13.383241 +0530,
196,0,196,0,432.5652986000059,,432.5232468000031,10,432.5652986000059,432.5652986000059,0.025518299953546375,435.0190824000165,[0.464],[0.092],[1],[0],[0],[2.470414300041739],['target'],940595,001,2024-10-09_00h32.10.569,untitled,2024.1.5,None,2024-10-09 00h32.13.383241 +0530,
197,0,197,0,435.0648961000261,,435.02314290002687,10,435.0648961000261,435.0648961000261,0.024686099961400032,437.01975990005303,"[0.464, 0.296]","[0.092, -0.072]","[1, 1]","[0, 0]","[0, 0]","[0.287116099963896, 1.971993399958592]",['target'],940595,001,2024-10-09_00h32.10.569,untitled,2024.1.5,None,2024-10-09 00h32.13.383241 +0530,
198,0,198,0,437.08146680000937,,437.0234802000341,10,437.08146680000937,437.08146680000937,0.030185800045728683,439.46821300004376,[-0.044],[0.094],[1],[0],[0],[2.4145187999820337],['target'],940595,001,2024-10-09_00h32.10.569,untitled,2024.1.5,None,2024-10-09 00h32.13.383241 +0530,
199,0,199,0,439.5152310000267,,439.47246570000425,10,439.5152310000267,439.5152310000267,0.02429520001169294,441.90067870001076,[0.42],[-0.314],[1],[0],[0],[2.4043544000014663],['target'],940595,001,2024-10-09_00h32.10.569,untitled,2024.1.5,None,2024-10-09 00h32.13.383241 +0530,
