trials.thisRepN,trials.thisTrialN,trials.thisN,trials.thisIndex,thisRow.t,notes,trial.started,num_distr,fixation.started,target.started,mouse.started,trial.stopped,mouse.x,mouse.y,mouse.leftButton,mouse.midButton,mouse.rightButton,mouse.time,mouse.clicked_name,participant,session,date,expName,psychopyVersion,frameRate,expStart,
0,0,0,0,0.09339719999115914,,0.016640999994706362,10,0.09339719999115914,0.09339719999115914,0.07444699999177828,2.0129809999489225,[0.272],[-0.058],[1],[0],[0],[1.9374233999988064],['target'],989773,001,2024-10-09_13h37.42.546,untitled,2024.1.5,None,2024-10-09 13h37.45.332848 +0530,
1,0,1,0,2.0433078999631107,,2.016119299980346,5,2.0433078999631107,2.0433078999631107,0.012580899987369776,3.9979073999566026,[-0.378],[-0.038],[1],[0],[0],[1.9690340000088327],['target'],989773,001,2024-10-09_13h37.42.546,untitled,2024.1.5,None,2024-10-09 13h37.45.332848 +0530,
2,0,2,0,4.060987999953795,,4.004806199984159,5,4.060987999953795,4.060987999953795,0.03219980001449585,5.8308422999689355,[0.244],[0.178],[1],[0],[0],[1.7945457000168972],['target'],989773,001,2024-10-09_13h37.42.546,untitled,2024.1.5,None,2024-10-09 13h37.45.332848 +0530,
3,0,3,0,5.910648699966259,,5.835651199973654,10,5.910648699966259,5.910648699966259,0.04732269997475669,7.713464499975089,[0.462],[0.092],[1],[0],[0],[1.8302842000266537],['target'],989773,001,2024-10-09_13h37.42.546,untitled,2024.1.5,None,2024-10-09 13h37.45.332848 +0530,
4,0,4,0,7.793630399974063,,7.72029659996042,10,7.793630399974063,7.793630399974063,0.05642099998658523,9.314746399992146,[-0.32],[-0.076],[1],[0],[0],[1.5386137999594212],['target'],989773,001,2024-10-09_13h37.42.546,untitled,2024.1.5,None,2024-10-09 13h37.45.332848 +0530,
5,0,5,0,9.39362639997853,,9.32162399997469,10,9.39362639997853,9.39362639997853,0.04894659999990836,12.327898899966385,[-0.456],[-0.27],[1],[0],[0],[2.9584780000150204],['target'],989773,001,2024-10-09_13h37.42.546,untitled,2024.1.5,None,2024-10-09 13h37.45.332848 +0530,
6,0,6,0,12.376937699969858,,12.330475199967623,10,12.376937699969858,12.376937699969858,0.025880000030156225,13.795931999979075,[-0.37],[-0.298],[1],[0],[0],[1.4393571999971755],['target'],989773,001,2024-10-09_13h37.42.546,untitled,2024.1.5,None,2024-10-09 13h37.45.332848 +0530,
7,0,7,0,13.843856599996798,,13.802980899985414,5,13.843856599996798,13.843856599996798,0.03178610000759363,15.545466199982911,[0.268],[-0.066],[1],[0],[0],[1.711863100004848],['target'],989773,001,2024-10-09_13h37.42.546,untitled,2024.1.5,None,2024-10-09 13h37.45.332848 +0530,
8,0,8,0,15.577333399967756,,15.548022599949036,5,15.577333399967756,15.577333399967756,0.011841500003356487,17.362189399951603,[0.472],[0.388],[1],[0],[0],[1.8024327000021003],['target'],989773,001,2024-10-09_13h37.42.546,untitled,2024.1.5,None,2024-10-09 13h37.45.332848 +0530,
9,0,9,0,17.41041019995464,,17.364525599987246,10,17.41041019995464,17.41041019995464,0.021362500032410026,19.647340999974404,[-0.416],[-0.402],[1],[0],[0],[2.2611276999814436],['target'],989773,001,2024-10-09_13h37.42.546,untitled,2024.1.5,None,2024-10-09 13h37.45.332848 +0530,
10,0,10,0,19.727094699977897,,19.65463299996918,10,19.727094699977897,19.727094699977897,0.05970310000702739,21.363736299972516,[-0.428],[-0.17],[1],[0],[0],[1.6505010999972],['target'],989773,001,2024-10-09_13h37.42.546,untitled,2024.1.5,None,2024-10-09 13h37.45.332848 +0530,
11,0,11,0,21.394698899996,,21.36637389997486,5,21.394698899996,21.394698899996,0.012339700013399124,23.713198699988425,[0.336],[0.434],[1],[0],[0],[2.3347333000274375],['target'],989773,001,2024-10-09_13h37.42.546,untitled,2024.1.5,None,2024-10-09 13h37.45.332848 +0530,
12,0,12,0,23.760468199965544,,23.71565259998897,10,23.760468199965544,23.760468199965544,0.023999699973501265,28.135814199980814,[-0.374],[-0.044],[1],[0],[0],[4.395842800033279],['target'],989773,001,2024-10-09_13h37.42.546,untitled,2024.1.5,None,2024-10-09 13h37.45.332848 +0530,
13,0,13,0,28.227849799965043,,28.143899199960288,10,28.227849799965043,28.227849799965043,0.06292920000851154,29.563511799962725,[0.3],[0.284],[1],[0],[0],[1.3583143000141717],['target'],989773,001,2024-10-09_13h37.42.546,untitled,2024.1.5,None,2024-10-09 13h37.45.332848 +0530,
14,0,14,0,29.62823439994827,,29.570726299949456,5,29.62823439994827,29.62823439994827,0.032363599981181324,31.146122199948877,[0.3],[-0.062],[1],[0],[0],[1.544305399991572],['target'],989773,001,2024-10-09_13h37.42.546,untitled,2024.1.5,None,2024-10-09 13h37.45.332848 +0530,
15,0,15,0,31.179891999985557,,31.149712199985515,5,31.179891999985557,31.179891999985557,0.015088400046806782,35.596246399974916,[-0.392],[-0.332],[1],[0],[0],[4.431319600029383],['target'],989773,001,2024-10-09_13h37.42.546,untitled,2024.1.5,None,2024-10-09 13h37.45.332848 +0530,
16,0,16,0,35.67721029999666,,35.60458599997219,10,35.67721029999666,35.67721029999666,0.060318399977404624,37.14724819996627,[0.088],[-0.278],[1],[0],[0],[1.4832178999786265],['target'],989773,001,2024-10-09_13h37.42.546,untitled,2024.1.5,None,2024-10-09 13h37.45.332848 +0530,
17,0,17,0,37.244368899962865,,37.1544890999794,10,37.244368899962865,37.244368899962865,0.062260599981527776,39.4971376999747,[0.254],[0.496],[1],[0],[0],[2.281549700011965],['target'],989773,001,2024-10-09_13h37.42.546,untitled,2024.1.5,None,2024-10-09 13h37.45.332848 +0530,
18,0,18,0,39.527206300001126,,39.49957609997364,5,39.527206300001126,39.527206300001126,0.012910199991893023,41.784567399998195,[0.044],[-0.24],[1],[0],[0],[2.271795500011649],['target'],989773,001,2024-10-09_13h37.42.546,untitled,2024.1.5,None,2024-10-09 13h37.45.332848 +0530,
19,0,19,0,41.87764999998035,,41.790854799968656,10,41.87764999998035,41.87764999998035,0.05915749998530373,44.146077499957755,[0.208],[0.01],[1],[0],[0],[2.296588699973654],['target'],989773,001,2024-10-09_13h37.42.546,untitled,2024.1.5,None,2024-10-09 13h37.45.332848 +0530,
20,0,20,0,44.21064189996105,,44.15257189999102,10,44.21064189996105,44.21064189996105,0.04846230003749952,46.26264400000218,[-0.268],[0.484],[1],[0],[0],[2.0622571000130847],['target'],989773,001,2024-10-09_13h37.42.546,untitled,2024.1.5,None,2024-10-09 13h37.45.332848 +0530,
21,0,21,0,46.34389739995822,,46.268948499986436,10,46.34389739995822,46.34389739995822,0.056937300018034875,48.02966409997316,[0.07],[0.126],[1],[0],[0],[1.7042757999734022],['target'],989773,001,2024-10-09_13h37.42.546,untitled,2024.1.5,None,2024-10-09 13h37.45.332848 +0530,
22,0,22,0,48.12768809997942,,48.03631439997116,10,48.12768809997942,48.12768809997942,0.061644500005058944,50.496708299964666,[0.362],[-0.252],[1],[0],[0],[2.399359999981243],['target'],989773,001,2024-10-09_13h37.42.546,untitled,2024.1.5,None,2024-10-09 13h37.45.332848 +0530,
23,0,23,0,50.594520699989516,,50.503175999969244,10,50.594520699989516,50.594520699989516,0.05940909998025745,52.564101499971,[0.328],[0.168],[1],[0],[0],[2.0019521999638528],['target'],989773,001,2024-10-09_13h37.42.546,untitled,2024.1.5,None,2024-10-09 13h37.45.332848 +0530,
24,0,24,0,52.661394399998244,,52.57053659996018,10,52.661394399998244,52.661394399998244,0.06157970003550872,55.19647129997611,[-0.456],[0.172],[1],[0],[0],[2.5648745999787934],['target'],989773,001,2024-10-09_13h37.42.546,untitled,2024.1.5,None,2024-10-09 13h37.45.332848 +0530,
25,0,25,0,55.26127609994728,,55.20669339998858,5,55.26127609994728,55.26127609994728,0.03009449999080971,57.81443109997781,[-0.02],[-0.48],[1],[0],[0],[2.578411700029392],['target'],989773,001,2024-10-09_13h37.42.546,untitled,2024.1.5,None,2024-10-09 13h37.45.332848 +0530,
26,0,26,0,57.894092999980785,,57.82117919996381,10,57.894092999980785,57.894092999980785,0.03576990001602098,60.26379159995122,[-0.208],[-0.264],[1],[0],[0],[2.4073819000041112],['target'],989773,001,2024-10-09_13h37.42.546,untitled,2024.1.5,None,2024-10-09 13h37.45.332848 +0530,
27,0,27,0,60.32731339999009,,60.27022459998261,10,60.32731339999009,60.32731339999009,0.042856200016103685,62.113411899947096,[0.164],[-0.03],[1],[0],[0],[1.8009060000185855],['target'],989773,001,2024-10-09_13h37.42.546,untitled,2024.1.5,None,2024-10-09 13h37.45.332848 +0530,
28,0,28,0,62.21130169997923,,62.12035839998862,10,62.21130169997923,62.21130169997923,0.06140529998810962,63.84781339997426,[0.078],[-0.212],[1],[0],[0],[1.6666029999614693],['target'],989773,001,2024-10-09_13h37.42.546,untitled,2024.1.5,None,2024-10-09 13h37.45.332848 +0530,
29,0,29,0,63.910403799964115,,63.854448799975216,10,63.910403799964115,63.910403799964115,0.03439950000029057,66.24675769999158,[-0.426],[-0.004],[1],[0],[0],[2.3584132000105456],['target'],989773,001,2024-10-09_13h37.42.546,untitled,2024.1.5,None,2024-10-09 13h37.45.332848 +0530,
30,0,30,0,66.32765329995891,,66.25362789997598,10,66.32765329995891,66.32765329995891,0.058752299984917045,69.06459959998028,[0.314],[0.49],[1],[0],[0],[2.7527406999724917],['target'],989773,001,2024-10-09_13h37.42.546,untitled,2024.1.5,None,2024-10-09 13h37.45.332848 +0530,
31,0,31,0,69.12716329999967,,69.07089249999262,10,69.12716329999967,69.12716329999967,0.03633010003250092,71.29754979995778,[0.44],[0.364],[1],[0],[0],[2.190916199993808],['target'],989773,001,2024-10-09_13h37.42.546,untitled,2024.1.5,None,2024-10-09 13h37.45.332848 +0530,
32,0,32,0,71.36052359995665,,71.30440389999421,10,71.36052359995665,71.36052359995665,0.046570499951485544,73.64668239996536,[-0.346],[-0.05],[1],[0],[0],[2.2962570999516174],['target'],989773,001,2024-10-09_13h37.42.546,untitled,2024.1.5,None,2024-10-09 13h37.45.332848 +0530,
33,0,33,0,73.71102789998986,,73.65366949996678,5,73.71102789998986,73.71102789998986,0.03133440000237897,76.64859119994799,[-0.212],[-0.31],[1],[0],[0],[2.96442949998891],['target'],989773,001,2024-10-09_13h37.42.546,untitled,2024.1.5,None,2024-10-09 13h37.45.332848 +0530,
34,0,34,0,76.71148979995633,,76.65588029997889,5,76.71148979995633,76.71148979995633,0.03212260000873357,78.58107459999155,[-0.462],[0.308],[1],[0],[0],[1.8937548999674618],['target'],989773,001,2024-10-09_13h37.42.546,untitled,2024.1.5,None,2024-10-09 13h37.45.332848 +0530,
35,0,35,0,78.66046159999678,,78.58758079999825,10,78.66046159999678,78.66046159999678,0.051895299984607846,80.92990859999554,[-0.068],[-0.22],[1],[0],[0],[2.290910299983807],['target'],989773,001,2024-10-09_13h37.42.546,untitled,2024.1.5,None,2024-10-09 13h37.45.332848 +0530,
36,0,36,0,80.99413559999084,,80.93715349998092,10,80.99413559999084,80.99413559999084,0.04541520000202581,82.87998659996083,[0.268],[0.332],[1],[0],[0],[1.8979171999963],['target'],989773,001,2024-10-09_13h37.42.546,untitled,2024.1.5,None,2024-10-09 13h37.45.332848 +0530,
37,0,37,0,82.94463809998706,,82.88672229996882,5,82.94463809998706,82.94463809998706,0.03385760000674054,84.73056169995107,[-0.454],[0.24],[1],[0],[0],[1.810722199967131],['target'],989773,001,2024-10-09_13h37.42.546,untitled,2024.1.5,None,2024-10-09 13h37.45.332848 +0530,
38,0,38,0,84.81125739996787,,84.73832589999074,10,84.81125739996787,84.81125739996787,0.049988700018730015,87.17990499996813,[-0.13],[0.364],[1],[0],[0],[2.3921903999871574],['target'],989773,001,2024-10-09_13h37.42.546,untitled,2024.1.5,None,2024-10-09 13h37.45.332848 +0530,
39,0,39,0,87.24413339997409,,87.18714779999573,10,87.24413339997409,87.24413339997409,0.038639800040982664,89.06394249998266,[0.006],[0.192],[1],[0],[0],[1.83893149998039],['target'],989773,001,2024-10-09_13h37.42.546,untitled,2024.1.5,None,2024-10-09 13h37.45.332848 +0530,
40,0,40,0,89.12793839996448,,89.07048259995645,5,89.12793839996448,89.12793839996448,0.03446299995994195,91.04816099995514,[0.082],[0.364],[1],[0],[0],[1.9438950000330806],['target'],989773,001,2024-10-09_13h37.42.546,untitled,2024.1.5,None,2024-10-09 13h37.45.332848 +0530,
41,0,41,0,91.12703959998908,,91.0546967999544,10,91.12703959998908,91.12703959998908,0.05883749999338761,93.99709749995964,[0.324],[0.382],[1],[0],[0],[2.884324299986474],['target'],989773,001,2024-10-09_13h37.42.546,untitled,2024.1.5,None,2024-10-09 13h37.45.332848 +0530,
42,0,42,0,94.06096350000007,,94.0039214999997,5,94.06096350000007,94.06096350000007,0.030921900004614145,95.49953889998142,[0.38],[0.22],[1],[0],[0],[1.4652464000391774],['target'],989773,001,2024-10-09_13h37.42.546,untitled,2024.1.5,None,2024-10-09 13h37.45.332848 +0530,
43,0,43,0,95.5773218999966,,95.50602799997432,10,95.5773218999966,95.5773218999966,0.05123649997403845,96.99678809999023,[-0.378],[0.154],[1],[0],[0],[1.4400354999816045],['target'],989773,001,2024-10-09_13h37.42.546,untitled,2024.1.5,None,2024-10-09 13h37.45.332848 +0530,
44,0,44,0,97.0943619000027,,97.00348209997173,10,97.0943619000027,97.0943619000027,0.06007760000647977,98.96335159998853,[0.046],[0.276],[1],[0],[0],[1.900354099983815],['target'],989773,001,2024-10-09_13h37.42.546,untitled,2024.1.5,None,2024-10-09 13h37.45.332848 +0530,
45,0,45,0,99.07747369998833,,98.97068279999075,10,99.07747369998833,99.07747369998833,0.09552439994877204,100.94664799998282,[0.182],[-0.036],[1],[0],[0],[1.8811603999929503],['target'],989773,001,2024-10-09_13h37.42.546,untitled,2024.1.5,None,2024-10-09 13h37.45.332848 +0530,
46,0,46,0,101.01096309995046,,100.9540374999633,5,101.01096309995046,101.01096309995046,0.0317638999549672,103.94720509997569,[-0.234],[0.476],[1],[0],[0],[2.96255180001026],['target'],989773,001,2024-10-09_13h37.42.546,untitled,2024.1.5,None,2024-10-09 13h37.45.332848 +0530,
47,0,47,0,104.01079989998834,,103.95441489998484,5,104.01079989998834,104.01079989998834,0.036265900009311736,105.34540069999639,[-0.19],[0.452],[1],[0],[0],[1.3561955000041053],['target'],989773,001,2024-10-09_13h37.42.546,untitled,2024.1.5,None,2024-10-09 13h37.45.332848 +0530,
48,0,48,0,105.37692069995683,,105.34776360000251,5,105.37692069995683,105.37692069995683,0.011175899999216199,108.49791299999924,[0.484],[-0.408],[1],[0],[0],[3.1387582000461407],['target'],989773,001,2024-10-09_13h37.42.546,untitled,2024.1.5,None,2024-10-09 13h37.45.332848 +0530,
49,0,49,0,108.56151249998948,,108.50538089999463,5,108.56151249998948,108.56151249998948,0.0354759999900125,110.76446199999191,[0.306],[-0.332],[1],[0],[0],[2.224518099974375],['target'],989773,001,2024-10-09_13h37.42.546,untitled,2024.1.5,None,2024-10-09 13h37.45.332848 +0530,
50,0,50,0,110.82722209999338,,110.7725277999998,10,110.82722209999338,110.82722209999338,0.03740109998034313,113.03019059996586,[-0.5],[-0.176],[1],[0],[0],[2.2217900999821723],['target'],989773,001,2024-10-09_13h37.42.546,untitled,2024.1.5,None,2024-10-09 13h37.45.332848 +0530,
51,0,51,0,113.09426839998923,,113.03998139995383,5,113.09426839998923,113.09426839998923,0.0343836999963969,115.08123689994682,[-0.096],[0.156],[1],[0],[0],[2.007547099958174],['target'],989773,001,2024-10-09_13h37.42.546,untitled,2024.1.5,None,2024-10-09 13h37.45.332848 +0530,
52,0,52,0,115.14412829995854,,115.08779069996672,10,115.14412829995854,115.14412829995854,0.0370268999831751,116.64789989998098,[-0.254],[-0.268],[1],[0],[0],[1.5234478999627754],['target'],989773,001,2024-10-09_13h37.42.546,untitled,2024.1.5,None,2024-10-09 13h37.45.332848 +0530,
53,0,53,0,116.7446440999629,,116.65441169997212,10,116.7446440999629,116.7446440999629,0.05946219997713342,118.51334269996732,[0.106],[-0.114],[1],[0],[0],[1.7999981000320986],['target'],989773,001,2024-10-09_13h37.42.546,untitled,2024.1.5,None,2024-10-09 13h37.45.332848 +0530,
54,0,54,0,118.61069919995498,,118.52036480000243,10,118.61069919995498,118.61069919995498,0.06021689996123314,120.1632883999846,[0.448],[0.076],[1],[0],[0],[1.5834746999898925],['target'],989773,001,2024-10-09_13h37.42.546,untitled,2024.1.5,None,2024-10-09 13h37.45.332848 +0530,
55,0,55,0,120.26127779996023,,120.16988169995602,10,120.26127779996023,120.26127779996023,0.06011949997628108,121.89788009994663,[0.044],[0.228],[1],[0],[0],[1.668483900022693],['target'],989773,001,2024-10-09_13h37.42.546,untitled,2024.1.5,None,2024-10-09 13h37.45.332848 +0530,
56,0,56,0,121.96125509997364,,121.90464569994947,5,121.96125509997364,121.96125509997364,0.03140989999519661,123.68104699999094,[-0.362],[0.308],[1],[0],[0],[1.745497299998533],['target'],989773,001,2024-10-09_13h37.42.546,untitled,2024.1.5,None,2024-10-09 13h37.45.332848 +0530,
57,0,57,0,123.74446329998318,,123.68760619999375,5,123.74446329998318,123.74446329998318,0.030495400016661733,125.68140189995756,[0.282],[-0.21],[1],[0],[0],[1.9638782000401989],['target'],989773,001,2024-10-09_13h37.42.546,untitled,2024.1.5,None,2024-10-09 13h37.45.332848 +0530,
58,0,58,0,125.77775219996693,,125.68791739997687,10,125.77775219996693,125.77775219996693,0.0581924999714829,127.27997599996161,[0.284],[-0.308],[1],[0],[0],[1.534284400055185],['target'],989773,001,2024-10-09_13h37.42.546,untitled,2024.1.5,None,2024-10-09 13h37.45.332848 +0530,
59,0,59,0,127.34453199995914,,127.28635859995848,5,127.34453199995914,127.34453199995914,0.03158170002279803,128.6315534999594,[0.21],[-0.306],[1],[0],[0],[1.314306000014767],['target'],989773,001,2024-10-09_13h37.42.546,untitled,2024.1.5,None,2024-10-09 13h37.45.332848 +0530,
60,0,60,0,128.69462289998773,,128.63881370000308,5,128.69462289998773,128.69462289998773,0.03413650003494695,130.06150719994912,[0.422],[0.092],[1],[0],[0],[1.3897717999643646],['target'],989773,001,2024-10-09_13h37.42.546,untitled,2024.1.5,None,2024-10-09 13h37.45.332848 +0530,
61,0,61,0,130.11075069999788,,130.06383279996226,10,130.11075069999788,130.11075069999788,0.021256099978927523,132.6293783999863,[-0.404],[0.49],[1],[0],[0],[2.5444689000141807],['target'],989773,001,2024-10-09_13h37.42.546,untitled,2024.1.5,None,2024-10-09 13h37.45.332848 +0530,
62,0,62,0,132.66078419995029,,132.6321387999924,5,132.66078419995029,132.66078419995029,0.01245290000224486,134.61390489997575,[-0.484],[0.15],[1],[0],[0],[1.969082299969159],['target'],989773,001,2024-10-09_13h37.42.546,untitled,2024.1.5,None,2024-10-09 13h37.45.332848 +0530,
63,0,63,0,134.6779974999954,,134.62144799996167,5,134.6779974999954,134.6779974999954,0.03408170002512634,137.1136066999752,[0.248],[-0.064],[1],[0],[0],[2.4590206000139005],['target'],989773,001,2024-10-09_13h37.42.546,untitled,2024.1.5,None,2024-10-09 13h37.45.332848 +0530,
64,0,64,0,137.21082719997503,,137.1207159999758,10,137.21082719997503,137.21082719997503,0.06209890003083274,139.32999859994743,[-0.446],[0.1],[1],[0],[0],[2.1483241000096314],['target'],989773,001,2024-10-09_13h37.42.546,untitled,2024.1.5,None,2024-10-09 13h37.45.332848 +0530,
65,0,65,0,139.3947500999784,,139.3369213999831,5,139.3947500999784,139.3947500999784,0.03189270000439137,141.96438799996395,[-0.314],[0.49],[1],[0],[0],[2.5964712999993935],['target'],989773,001,2024-10-09_13h37.42.546,untitled,2024.1.5,None,2024-10-09 13h37.45.332848 +0530,
66,0,66,0,142.0106409,,141.97177779994672,5,142.0106409,142.0106409,0.02628530003130436,143.98051819996908,[0.068],[-0.19],[1],[0],[0],[1.9833067000145093],['target'],989773,001,2024-10-09_13h37.42.546,untitled,2024.1.5,None,2024-10-09 13h37.45.332848 +0530,
67,0,67,0,144.06107019999763,,143.98786019999534,10,144.06107019999763,144.06107019999763,0.05115710000973195,146.0312168999808,[-0.396],[-0.466],[1],[0],[0],[1.9926486000185832],['target'],989773,001,2024-10-09_13h37.42.546,untitled,2024.1.5,None,2024-10-09 13h37.45.332848 +0530,
68,0,68,0,146.0945103999693,,146.0379610999953,5,146.0945103999693,146.0945103999693,0.03280440001981333,148.23054059996502,[0.334],[0.034],[1],[0],[0],[2.160501700011082],['target'],989773,001,2024-10-09_13h37.42.546,untitled,2024.1.5,None,2024-10-09 13h37.45.332848 +0530,
69,0,69,0,148.29392969998298,,148.2376680999878,10,148.29392969998298,148.29392969998298,0.04001979995518923,149.82991999998922,[-0.228],[0.036],[1],[0],[0],[1.5532199000008404],['target'],989773,001,2024-10-09_13h37.42.546,untitled,2024.1.5,None,2024-10-09 13h37.45.332848 +0530,
70,0,70,0,149.8947208999889,,149.83647239999846,5,149.8947208999889,149.8947208999889,0.031245300022419542,151.3968915999867,[0.03],[0.28],[1],[0],[0],[1.529803199984599],['target'],989773,001,2024-10-09_13h37.42.546,untitled,2024.1.5,None,2024-10-09 13h37.45.332848 +0530,
71,0,71,0,151.47756339999614,,151.40447529999074,10,151.47756339999614,151.47756339999614,0.04668089997721836,153.5630365999532,[-0.188],[0.1],[1],[0],[0],[2.112705100036692],['target'],989773,001,2024-10-09_13h37.42.546,untitled,2024.1.5,None,2024-10-09 13h37.45.332848 +0530,
72,0,72,0,153.6612317999825,,153.56942879996495,10,153.6612317999825,153.6612317999825,0.060954499989748,155.09682249999605,[-0.032],[0.128],[1],[0],[0],[1.466997799987439],['target'],989773,001,2024-10-09_13h37.42.546,untitled,2024.1.5,None,2024-10-09 13h37.45.332848 +0530,
73,0,73,0,155.16120259999298,,155.10352299996885,5,155.16120259999298,155.16120259999298,0.03179550002096221,157.26437529997202,[0.004],[-0.442],[1],[0],[0],[2.12992320000194],['target'],989773,001,2024-10-09_13h37.42.546,untitled,2024.1.5,None,2024-10-09 13h37.45.332848 +0530,
74,0,74,0,157.34395939996466,,157.27089509996586,10,157.34395939996466,157.34395939996466,0.055152699991595,158.74793349998072,[-0.26],[-0.106],[1],[0],[0],[1.4223342000041157],['target'],989773,001,2024-10-09_13h37.42.546,untitled,2024.1.5,None,2024-10-09 13h37.45.332848 +0530,
75,0,75,0,158.81137469998794,,158.75476769998204,5,158.81137469998794,158.81137469998794,0.032516000035684556,161.64755889994558,"[0.278, 0.292]","[0.116, 0.116]","[1, 1]","[0, 0]","[0, 0]","[1.8264369000098668, 2.8609037999995053]",['target'],989773,001,2024-10-09_13h37.42.546,untitled,2024.1.5,None,2024-10-09 13h37.45.332848 +0530,
76,0,76,0,161.72735179995652,,161.65386049996596,10,161.72735179995652,161.72735179995652,0.053319400001782924,163.7137994999648,[-0.434],[0.446],[1],[0],[0],[2.006741899996996],['target'],989773,001,2024-10-09_13h37.42.546,untitled,2024.1.5,None,2024-10-09 13h37.45.332848 +0530,
77,0,77,0,163.79421849997016,,163.72086659999331,10,163.79421849997016,163.79421849997016,0.05463979998603463,165.84713559999363,[0.388],[-0.496],[1],[0],[0],[2.0722146999905817],['target'],989773,001,2024-10-09_13h37.42.546,untitled,2024.1.5,None,2024-10-09 13h37.45.332848 +0530,
78,0,78,0,165.92728919995716,,165.85358489997452,10,165.92728919995716,165.92728919995716,0.053129800013266504,167.94757099996787,[0.118],[0.45],[1],[0],[0],[2.0414059000322595],['target'],989773,001,2024-10-09_13h37.42.546,untitled,2024.1.5,None,2024-10-09 13h37.45.332848 +0530,
79,0,79,0,168.02730769995833,,167.9540483999881,10,168.02730769995833,168.02730769995833,0.05360879999352619,169.3975655999966,[0.036],[0.072],[1],[0],[0],[1.3904853000422008],['target'],989773,001,2024-10-09_13h37.42.546,untitled,2024.1.5,None,2024-10-09 13h37.45.332848 +0530,
80,0,80,0,169.47791219997453,,169.40419279999333,10,169.47791219997453,169.47791219997453,0.05313739995472133,171.16487339994637,[0.276],[0.074],[1],[0],[0],[1.7080662000225857],['target'],989773,001,2024-10-09_13h37.42.546,untitled,2024.1.5,None,2024-10-09 13h37.45.332848 +0530,
81,0,81,0,171.26167099998565,,171.17155789997196,10,171.26167099998565,171.26167099998565,0.059150999994017184,172.76342179998755,[0.36],[0.404],[1],[0],[0],[1.533344900002703],['target'],989773,001,2024-10-09_13h37.42.546,untitled,2024.1.5,None,2024-10-09 13h37.45.332848 +0530,
82,0,82,0,172.82764959998894,,172.77113049995387,10,172.82764959998894,172.82764959998894,0.04179420002037659,174.5968106999644,[0.302],[-0.08],[1],[0],[0],[1.7844285999890417],['target'],989773,001,2024-10-09_13h37.42.546,untitled,2024.1.5,None,2024-10-09 13h37.45.332848 +0530,
83,0,83,0,174.66133399994578,,174.6037665999611,5,174.66133399994578,174.66133399994578,0.03249439998762682,175.9154373999918,[-0.302],[0.172],[1],[0],[0],[1.2803869000053965],['target'],989773,001,2024-10-09_13h37.42.546,untitled,2024.1.5,None,2024-10-09 13h37.45.332848 +0530,
84,0,84,0,175.97769979998702,,175.92192269995576,5,175.97769979998702,175.97769979998702,0.03337429999373853,177.79627589997835,[0.486],[0.438],[1],[0],[0],[1.8417975999764167],['target'],989773,001,2024-10-09_13h37.42.546,untitled,2024.1.5,None,2024-10-09 13h37.45.332848 +0530,
85,0,85,0,177.86141369998222,,177.80328939994797,5,177.86141369998222,177.86141369998222,0.0326898000203073,180.0635387999937,[0.13],[-0.238],[1],[0],[0],[2.228380999993533],['target'],989773,001,2024-10-09_13h37.42.546,untitled,2024.1.5,None,2024-10-09 13h37.45.332848 +0530,
86,0,86,0,180.12747609999496,,180.07132239994826,10,180.12747609999496,180.12747609999496,0.037117999978363514,181.9979355999967,[-0.3],[-0.25],[1],[0],[0],[1.8901999999652617],['target'],989773,001,2024-10-09_13h37.42.546,untitled,2024.1.5,None,2024-10-09 13h37.45.332848 +0530,
87,0,87,0,182.06118089996744,,182.00470839999616,10,182.06118089996744,182.06118089996744,0.046717300021555275,183.74681879999116,[-0.078],[0.264],[1],[0],[0],[1.695970100001432],['target'],989773,001,2024-10-09_13h37.42.546,untitled,2024.1.5,None,2024-10-09 13h37.45.332848 +0530,
88,0,88,0,183.84486519999336,,183.75409369997215,10,183.84486519999336,183.84486519999336,0.06033099995693192,185.51324819994625,[-0.498],[0.032],[1],[0],[0],[1.6995987999835052],['target'],989773,001,2024-10-09_13h37.42.546,untitled,2024.1.5,None,2024-10-09 13h37.45.332848 +0530,
89,0,89,0,185.5776971000014,,185.51985029998468,5,185.5776971000014,185.5776971000014,0.03171360003761947,187.16713909996906,[-0.5],[0.21],[1],[0],[0],[1.6162001000484452],['target'],989773,001,2024-10-09_13h37.42.546,untitled,2024.1.5,None,2024-10-09 13h37.45.332848 +0530,
90,0,90,0,187.26124359999085,,187.17366809997475,10,187.26124359999085,187.26124359999085,0.05879919999279082,188.4974011000013,[-0.09],[0.02],[1],[0],[0],[1.2654909999691881],['target'],989773,001,2024-10-09_13h37.42.546,untitled,2024.1.5,None,2024-10-09 13h37.45.332848 +0530,
91,0,91,0,188.56146060000174,,188.50455869996222,5,188.56146060000174,188.56146060000174,0.03231510001933202,190.56469410000136,[-0.474],[0.242],[1],[0],[0],[2.02833980001742],['target'],989773,001,2024-10-09_13h37.42.546,untitled,2024.1.5,None,2024-10-09 13h37.45.332848 +0530,
92,0,92,0,190.6281214999617,,190.5715130000026,5,190.6281214999617,190.6281214999617,0.032158899994101375,192.66464919998543,[-0.072],[0.412],[1],[0],[0],[2.0618327999836765],['target'],989773,001,2024-10-09_13h37.42.546,untitled,2024.1.5,None,2024-10-09 13h37.45.332848 +0530,
93,0,93,0,192.72761179995723,,192.67100609996123,5,192.72761179995723,192.72761179995723,0.031806099985260516,194.8325390999671,[-0.462],[-0.382],[1],[0],[0],[2.1303063000086695],['target'],989773,001,2024-10-09_13h37.42.546,untitled,2024.1.5,None,2024-10-09 13h37.45.332848 +0530,
94,0,94,0,194.92799989995547,,194.8392465999932,10,194.92799989995547,194.92799989995547,0.06055500003276393,196.73013619997073,[-0.158],[-0.152],[1],[0],[0],[1.8309955999720842],['target'],989773,001,2024-10-09_13h37.42.546,untitled,2024.1.5,None,2024-10-09 13h37.45.332848 +0530,
95,0,95,0,196.7948786999914,,196.73743639996974,5,196.7948786999914,196.7948786999914,0.03215230000205338,198.86537079996197,[-0.292],[-0.172],[1],[0],[0],[2.09663929999806],['target'],989773,001,2024-10-09_13h37.42.546,untitled,2024.1.5,None,2024-10-09 13h37.45.332848 +0530,
96,0,96,0,198.92719759995816,,198.87233469996136,10,198.92719759995816,198.92719759995816,0.042288600001484156,200.69675939995795,[-0.218],[0.212],[1],[0],[0],[1.7828725000144914],['target'],989773,001,2024-10-09_13h37.42.546,untitled,2024.1.5,None,2024-10-09 13h37.45.332848 +0530,
97,0,97,0,200.79484879999654,,200.70332689996576,10,200.79484879999654,200.79484879999654,0.05704310000874102,203.19708719995106,[0.11],[0.044],[1],[0],[0],[2.4372965999646112],['target'],989773,001,2024-10-09_13h37.42.546,untitled,2024.1.5,None,2024-10-09 13h37.45.332848 +0530,
98,0,98,0,203.26120249996893,,203.2041466999799,10,203.26120249996893,203.26120249996893,0.03607549995649606,205.01400599995395,[0.068],[-0.236],[1],[0],[0],[1.7744351999717765],['target'],989773,001,2024-10-09_13h37.42.546,untitled,2024.1.5,None,2024-10-09 13h37.45.332848 +0530,
99,0,99,0,205.07826659997227,,205.02045759995235,5,205.07826659997227,205.07826659997227,0.03194750001421198,206.5474604999763,[0.462],[-0.136],[1],[0],[0],[1.4957481999881566],['target'],989773,001,2024-10-09_13h37.42.546,untitled,2024.1.5,None,2024-10-09 13h37.45.332848 +0530,
100,0,100,0,206.62784889998147,,206.55499579996103,10,206.62784889998147,206.62784889998147,0.058501899999100715,208.28134639997734,[-0.242],[-0.388],[1],[0],[0],[1.668493600038346],['target'],989773,001,2024-10-09_13h37.42.546,untitled,2024.1.5,None,2024-10-09 13h37.45.332848 +0530,
101,0,101,0,208.37812889995985,,208.28790819999995,10,208.37812889995985,208.37812889995985,0.05984160001389682,210.04689769999823,[-0.41],[-0.166],[1],[0],[0],[1.6997477000113577],['target'],989773,001,2024-10-09_13h37.42.546,untitled,2024.1.5,None,2024-10-09 13h37.45.332848 +0530,
102,0,102,0,210.14482089999365,,210.05356989998836,10,210.14482089999365,210.14482089999365,0.0625879000290297,212.28069719998166,[-0.166],[0.484],[1],[0],[0],[2.165333400014788],['target'],989773,001,2024-10-09_13h37.42.546,untitled,2024.1.5,None,2024-10-09 13h37.45.332848 +0530,
103,0,103,0,212.34503389999736,,212.2874622999807,5,212.34503389999736,212.34503389999736,0.03115400002570823,215.21498539997265,[0.4],[0.36],[1],[0],[0],[2.8971542000072077],['target'],989773,001,2024-10-09_13h37.42.546,untitled,2024.1.5,None,2024-10-09 13h37.45.332848 +0530,
104,0,104,0,215.2945228999597,,215.22169849998318,10,215.2945228999597,215.2945228999597,0.04182889999356121,216.92995229997905,[-0.092],[-0.17],[1],[0],[0],[1.6670360999996774],['target'],989773,001,2024-10-09_13h37.42.546,untitled,2024.1.5,None,2024-10-09 13h37.45.332848 +0530,
105,0,105,0,217.0108708999469,,216.93661579996115,10,217.0108708999469,217.0108708999469,0.05764319997979328,218.98187199997483,[0.334],[0.218],[1],[0],[0],[1.9880606000078842],['target'],989773,001,2024-10-09_13h37.42.546,untitled,2024.1.5,None,2024-10-09 13h37.45.332848 +0530,
106,0,106,0,219.04488059994765,,218.98873109999113,5,219.04488059994765,219.04488059994765,0.03251350001664832,220.81464599998435,[0.142],[0.486],[1],[0],[0],[1.7940696000005119],['target'],989773,001,2024-10-09_13h37.42.546,untitled,2024.1.5,None,2024-10-09 13h37.45.332848 +0530,
107,0,107,0,220.89443479996407,,220.82102699996904,10,220.89443479996407,220.89443479996407,0.04863670002669096,223.44655299995793,[-0.39],[0.448],[1],[0],[0],[2.5775337999803014],['target'],989773,001,2024-10-09_13h37.42.546,untitled,2024.1.5,None,2024-10-09 13h37.45.332848 +0530,
108,0,108,0,223.51148729998386,,223.45385140000144,5,223.51148729998386,223.51148729998386,0.03363789996365085,225.2644175000023,[-0.45],[0.258],[1],[0],[0],[1.7779268000158481],['target'],989773,001,2024-10-09_13h37.42.546,untitled,2024.1.5,None,2024-10-09 13h37.45.332848 +0530,
109,0,109,0,225.36126089998288,,225.27041459997417,10,225.36126089998288,225.36126089998288,0.05768049997277558,227.76356409996515,[0.244],[-0.174],[1],[0],[0],[2.435904300014954],['target'],989773,001,2024-10-09_13h37.42.546,untitled,2024.1.5,None,2024-10-09 13h37.45.332848 +0530,
110,0,110,0,227.86168039997574,,227.76998339995043,10,227.86168039997574,227.86168039997574,0.060975999978836626,229.34713839995675,[-0.164],[0.152],[1],[0],[0],[1.5166971000144258],['target'],989773,001,2024-10-09_13h37.42.546,untitled,2024.1.5,None,2024-10-09 13h37.45.332848 +0530,
111,0,111,0,229.44506519997958,,229.353915899992,10,229.44506519997958,229.44506519997958,0.05865649995394051,231.61450079997303,[0.252],[-0.308],[1],[0],[0],[2.2024543000152335],['target'],989773,001,2024-10-09_13h37.42.546,untitled,2024.1.5,None,2024-10-09 13h37.45.332848 +0530,
112,0,112,0,231.69452530000126,,231.62144599994645,10,231.69452530000126,231.69452530000126,0.0491154000046663,233.53053709998494,[0.322],[-0.056],[1],[0],[0],[1.8605180000304244],['target'],989773,001,2024-10-09_13h37.42.546,untitled,2024.1.5,None,2024-10-09 13h37.45.332848 +0530,
113,0,113,0,233.59490149997873,,233.53732239996316,5,233.59490149997873,233.59490149997873,0.030888999986927956,235.28329659998417,[-0.45],[-0.012],[1],[0],[0],[1.715672500024084],['target'],989773,001,2024-10-09_13h37.42.546,untitled,2024.1.5,None,2024-10-09 13h37.45.332848 +0530,
114,0,114,0,235.37795459997142,,235.290518099966,10,235.37795459997142,235.37795459997142,0.06244369997875765,237.91371199995046,[-0.066],[0.448],[1],[0],[0],[2.5614355000434443],['target'],989773,001,2024-10-09_13h37.42.546,untitled,2024.1.5,None,2024-10-09 13h37.45.332848 +0530,
115,0,115,0,237.97781009995379,,237.920664699981,5,237.97781009995379,237.97781009995379,0.032664400001522154,239.38234259997262,[-0.068],[0.498],[1],[0],[0],[1.4298119000159204],['target'],989773,001,2024-10-09_13h37.42.546,untitled,2024.1.5,None,2024-10-09 13h37.45.332848 +0530,
116,0,116,0,239.4610066000023,,239.38873839995358,10,239.4610066000023,239.4610066000023,0.04955350002273917,241.69697309995536,[-0.262],[0.318],[1],[0],[0],[2.2592605000245385],['target'],989773,001,2024-10-09_13h37.42.546,untitled,2024.1.5,None,2024-10-09 13h37.45.332848 +0530,
117,0,117,0,241.76108189998195,,241.70414829999208,10,241.76108189998195,241.76108189998195,0.04739930003415793,244.31443169998238,[0.308],[-0.342],[1],[0],[0],[2.5635005999938585],['target'],989773,001,2024-10-09_13h37.42.546,untitled,2024.1.5,None,2024-10-09 13h37.45.332848 +0530,
118,0,118,0,244.4114025000017,,244.3210402999539,10,244.4114025000017,244.4114025000017,0.06048040004679933,245.91385219997028,[-0.468],[0.47],[1],[0],[0],[1.5328150000423193],['target'],989773,001,2024-10-09_13h37.42.546,untitled,2024.1.5,None,2024-10-09 13h37.45.332848 +0530,
119,0,119,0,246.0116338999942,,245.9204630999593,10,246.0116338999942,246.0116338999942,0.05538860004162416,249.24702469998738,[-0.08],[-0.164],[1],[0],[0],[3.2718131999718025],['target'],989773,001,2024-10-09_13h37.42.546,untitled,2024.1.5,None,2024-10-09 13h37.45.332848 +0530,
120,0,120,0,249.34485819999827,,249.25374580000062,10,249.34485819999827,249.34485819999827,0.05934889998752624,250.9145527999499,[0.042],[0.108],[1],[0],[0],[1.6020116000436246],['target'],989773,001,2024-10-09_13h37.42.546,untitled,2024.1.5,None,2024-10-09 13h37.45.332848 +0530,
121,0,121,0,250.97829409997212,,250.92110619996674,5,250.97829409997212,250.97829409997212,0.031244800018612295,253.06487649999326,[0.418],[0.164],[1],[0],[0],[2.113203999993857],['target'],989773,001,2024-10-09_13h37.42.546,untitled,2024.1.5,None,2024-10-09 13h37.45.332848 +0530,
122,0,122,0,253.1283548999927,,253.07235939998645,5,253.1283548999927,253.1283548999927,0.033779899997171015,254.8147441999754,[0.068],[-0.164],[1],[0],[0],[1.7094406000105664],['target'],989773,001,2024-10-09_13h37.42.546,untitled,2024.1.5,None,2024-10-09 13h37.45.332848 +0530,
123,0,123,0,254.91141409997363,,254.82094409997808,10,254.91141409997363,254.91141409997363,0.057742000033613294,256.7473735999665,[-0.404],[0.342],[1],[0],[0],[1.8691720999777317],['target'],989773,001,2024-10-09_13h37.42.546,untitled,2024.1.5,None,2024-10-09 13h37.45.332848 +0530,
124,0,124,0,256.8115751000005,,256.75692259997595,5,256.8115751000005,256.8115751000005,0.03281649999553338,258.4830221000011,[0.39],[-0.182],[1],[0],[0],[1.6951009000185877],['target'],989773,001,2024-10-09_13h37.42.546,untitled,2024.1.5,None,2024-10-09 13h37.45.332848 +0530,
125,0,125,0,258.545193799946,,258.4897078999784,5,258.545193799946,258.545193799946,0.03189029998611659,260.2486597999814,[-0.28],[0.478],[1],[0],[0],[1.7280940000200644],['target'],989773,001,2024-10-09_13h37.42.546,untitled,2024.1.5,None,2024-10-09 13h37.45.332848 +0530,
126,0,126,0,260.2940770999994,,260.25515579996863,5,260.2940770999994,260.2940770999994,0.030178099987097085,264.2471397999907,[0.274],[0.452],[1],[0],[0],[3.962466199998744],['target'],989773,001,2024-10-09_13h37.42.546,untitled,2024.1.5,None,2024-10-09 13h37.45.332848 +0530,
127,0,127,0,264.3446334999753,,264.2545137999696,10,264.3446334999753,264.3446334999753,0.06134979997295886,266.4145586999948,[0.236],[-0.274],[1],[0],[0],[2.0995013000210747],['target'],989773,001,2024-10-09_13h37.42.546,untitled,2024.1.5,None,2024-10-09 13h37.45.332848 +0530,
128,0,128,0,266.4776912999805,,266.4213411999517,10,266.4776912999805,266.4776912999805,0.0478984999936074,268.5137453999487,[0.406],[0.346],[1],[0],[0],[2.0453822999843396],['target'],989773,001,2024-10-09_13h37.42.546,untitled,2024.1.5,None,2024-10-09 13h37.45.332848 +0530,
129,0,129,0,268.5943414999638,,268.52053759997943,10,268.5943414999638,268.5943414999638,0.048833000008016825,270.447007699986,[0.17],[0.436],[1],[0],[0],[1.8781966000096872],['target'],989773,001,2024-10-09_13h37.42.546,untitled,2024.1.5,None,2024-10-09 13h37.45.332848 +0530,
130,0,130,0,270.5115437999484,,270.45359339995775,5,270.5115437999484,270.5115437999484,0.03138880000915378,271.9140694999951,[0.236],[-0.298],[1],[0],[0],[1.42986870004097],['target'],989773,001,2024-10-09_13h37.42.546,untitled,2024.1.5,None,2024-10-09 13h37.45.332848 +0530,
131,0,131,0,272.0115438999492,,271.92166369996266,10,272.0115438999492,272.0115438999492,0.06314339995151386,274.1467891999637,[-0.018],[-0.438],[1],[0],[0],[2.1629754999885336],['target'],989773,001,2024-10-09_13h37.42.546,untitled,2024.1.5,None,2024-10-09 13h37.45.332848 +0530,
132,0,132,0,274.22795709996717,,274.1534544999595,10,274.22795709996717,274.22795709996717,0.05445049999980256,276.24725989997387,[-0.216],[-0.042],[1],[0],[0],[2.0401352000189945],['target'],989773,001,2024-10-09_13h37.42.546,untitled,2024.1.5,None,2024-10-09 13h37.45.332848 +0530,
133,0,133,0,276.32806359999813,,276.25403109996114,10,276.32806359999813,276.32806359999813,0.05307130003347993,277.73054389999015,[-0.404],[0.218],[1],[0],[0],[1.4239398000063375],['target'],989773,001,2024-10-09_13h37.42.546,untitled,2024.1.5,None,2024-10-09 13h37.45.332848 +0530,
134,0,134,0,277.828530699946,,277.7375055999728,10,277.828530699946,277.828530699946,0.06149210000876337,279.5982152999495,[-0.43],[-0.226],[1],[0],[0],[1.799763199989684],['target'],989773,001,2024-10-09_13h37.42.546,untitled,2024.1.5,None,2024-10-09 13h37.45.332848 +0530,
135,0,135,0,279.6447870999691,,279.6055686000036,5,279.6447870999691,279.6447870999691,0.029541999974753708,281.2653281999519,[0.188],[-0.308],[1],[0],[0],[1.6310785000096075],['target'],989773,001,2024-10-09_13h37.42.546,untitled,2024.1.5,None,2024-10-09 13h37.45.332848 +0530,
136,0,136,0,281.327770999982,,281.27176989999134,5,281.327770999982,281.327770999982,0.03021870000520721,283.3668437000015,[-0.504],[-0.43],[1],[0],[0],[2.065353700018022],['target'],989773,001,2024-10-09_13h37.42.546,untitled,2024.1.5,None,2024-10-09 13h37.45.332848 +0530,
137,0,137,0,283.44451569998637,,283.3730602999567,10,283.44451569998637,283.44451569998637,0.04658419999759644,285.34760259999894,[0.302],[-0.454],[1],[0],[0],[1.928524200047832],['target'],989773,001,2024-10-09_13h37.42.546,untitled,2024.1.5,None,2024-10-09 13h37.45.332848 +0530,
138,0,138,0,285.41168619995005,,285.3538906999747,5,285.41168619995005,285.41168619995005,0.030402900010813028,287.3638011000003,[-0.426],[-0.264],[1],[0],[0],[1.9802436999743804],['target'],989773,001,2024-10-09_13h37.42.546,untitled,2024.1.5,None,2024-10-09 13h37.45.332848 +0530,
139,0,139,0,287.4281068999553,,287.3710310999886,5,287.4281068999553,287.4281068999553,0.03612030000658706,289.4496209999779,[-0.346],[0.474],[1],[0],[0],[2.043456600047648],['target'],989773,001,2024-10-09_13h37.42.546,untitled,2024.1.5,None,2024-10-09 13h37.45.332848 +0530,
140,0,140,0,289.5116969999508,,289.45669109997107,5,289.5116969999508,289.5116969999508,0.02918890002183616,291.6817083999631,[-0.342],[-0.366],[1],[0],[0],[2.1965383000206202],['target'],989773,001,2024-10-09_13h37.42.546,untitled,2024.1.5,None,2024-10-09 13h37.45.332848 +0530,
141,0,141,0,291.7613867999753,,291.69189799996093,10,291.7613867999753,291.7613867999753,0.04059239994967356,293.68010699999286,[-0.412],[0.256],[1],[0],[0],[1.948399499990046],['target'],989773,001,2024-10-09_13h37.42.546,untitled,2024.1.5,None,2024-10-09 13h37.45.332848 +0530,
142,0,142,0,293.7612100999686,,293.6869939999888,10,293.7612100999686,293.7612100999686,0.05161010002484545,295.66369989997474,[0.416],[0.112],[1],[0],[0],[1.9262049000244588],['target'],989773,001,2024-10-09_13h37.42.546,untitled,2024.1.5,None,2024-10-09 13h37.45.332848 +0530,
143,0,143,0,295.69453699997393,,295.66611849999754,5,295.69453699997393,295.69453699997393,0.011844800028484315,297.4315957999788,[-0.166],[0.098],[1],[0],[0],[1.7532326999935322],['target'],989773,001,2024-10-09_13h37.42.546,untitled,2024.1.5,None,2024-10-09 13h37.45.332848 +0530,
144,0,144,0,297.4950823999825,,297.4383773999871,5,297.4950823999825,297.4950823999825,0.0317578999674879,298.91483749996405,[-0.048],[-0.038],[1],[0],[0],[1.4454103999887593],['target'],989773,001,2024-10-09_13h37.42.546,untitled,2024.1.5,None,2024-10-09 13h37.45.332848 +0530,
145,0,145,0,299.01118309999583,,298.92145799996797,10,299.01118309999583,299.01118309999583,0.05784449999919161,300.64676159998635,[-0.17],[0.004],[1],[0],[0],[1.6680076000047848],['target'],989773,001,2024-10-09_13h37.42.546,untitled,2024.1.5,None,2024-10-09 13h37.45.332848 +0530,
146,0,146,0,300.7111328999745,,300.65331439999864,5,300.7111328999745,300.7111328999745,0.032577999983914196,302.7483559999964,[0.278],[-0.132],[1],[0],[0],[2.0631518000154756],['target'],989773,001,2024-10-09_13h37.42.546,untitled,2024.1.5,None,2024-10-09 13h37.45.332848 +0530,
147,0,147,0,302.81169649999356,,302.75577829999384,5,302.81169649999356,302.81169649999356,0.03288310003699735,304.5831028999528,[0.084],[-0.408],[1],[0],[0],[1.7951911999844015],['target'],989773,001,2024-10-09_13h37.42.546,untitled,2024.1.5,None,2024-10-09 13h37.45.332848 +0530,
148,0,148,0,304.66096700000344,,304.58938949997537,10,304.66096700000344,304.66096700000344,0.06079159997170791,306.91490039997734,[0.37],[-0.022],[1],[0],[0],[2.2654132999596186],['target'],989773,001,2024-10-09_13h37.42.546,untitled,2024.1.5,None,2024-10-09 13h37.45.332848 +0530,
149,0,149,0,306.9784394999733,,306.923205799947,5,306.9784394999733,306.9784394999733,0.03358029999071732,308.76523119997,[0.392],[-0.318],[1],[0],[0],[1.8096634999965318],['target'],989773,001,2024-10-09_13h37.42.546,untitled,2024.1.5,None,2024-10-09 13h37.45.332848 +0530,
150,0,150,0,308.82829069998115,,308.7717100000009,10,308.82829069998115,308.82829069998115,0.03658079996239394,310.830625899951,[-0.33],[-0.05],[1],[0],[0],[2.022934499953408],['target'],989773,001,2024-10-09_13h37.42.546,untitled,2024.1.5,None,2024-10-09 13h37.45.332848 +0530,
151,0,151,0,310.8943130999687,,310.83739299996523,10,310.8943130999687,310.8943130999687,0.03798409999581054,313.4972978999722,[0.222],[0.228],[1],[0],[0],[2.62252959999023],['target'],989773,001,2024-10-09_13h37.42.546,untitled,2024.1.5,None,2024-10-09 13h37.45.332848 +0530,
152,0,152,0,313.5616432999959,,313.5037367999903,5,313.5616432999959,313.5616432999959,0.031572400010190904,316.06400359998224,[-0.058],[-0.096],[1],[0],[0],[2.529234000016004],['target'],989773,001,2024-10-09_13h37.42.546,untitled,2024.1.5,None,2024-10-09 13h37.45.332848 +0530,
153,0,153,0,316.1283449999755,,316.07041819998994,5,316.1283449999755,316.1283449999755,0.03145109995966777,318.41419659997337,[-0.118],[0.41],[1],[0],[0],[2.3130499999970198],['target'],989773,001,2024-10-09_13h37.42.546,untitled,2024.1.5,None,2024-10-09 13h37.45.332848 +0530,
154,0,154,0,318.49475879996317,,318.42162539996207,10,318.49475879996317,318.49475879996317,0.06014969997340813,320.0479279999854,[-0.37],[0.13],[1],[0],[0],[1.5670795000041835],['target'],989773,001,2024-10-09_13h37.42.546,untitled,2024.1.5,None,2024-10-09 13h37.45.332848 +0530,
155,0,155,0,320.1445511999773,,320.0554625999648,10,320.1445511999773,320.1445511999773,0.057920899998862296,321.93034679995617,[0.464],[0.376],[1],[0],[0],[1.8176998000126332],['target'],989773,001,2024-10-09_13h37.42.546,untitled,2024.1.5,None,2024-10-09 13h37.45.332848 +0530,
156,0,156,0,322.0112439999939,,321.9370846999809,10,322.0112439999939,322.0112439999939,0.05742299999110401,323.3489614999853,[0.468],[0.38],[1],[0],[0],[1.354826700000558],['target'],989773,001,2024-10-09_13h37.42.546,untitled,2024.1.5,None,2024-10-09 13h37.45.332848 +0530,
157,0,157,0,323.4278307999484,,323.3560150999692,10,323.4278307999484,323.4278307999484,0.05269199999747798,325.2646523999865,[-0.018],[-0.084],[1],[0],[0],[1.8568463000119664],['target'],989773,001,2024-10-09_13h37.42.546,untitled,2024.1.5,None,2024-10-09 13h37.45.332848 +0530,
158,0,158,0,325.32840299996315,,325.27143119997345,5,325.32840299996315,325.32840299996315,0.03107969998382032,326.9486840000027,[0.226],[0.07],[1],[0],[0],[1.6470092000090517],['target'],989773,001,2024-10-09_13h37.42.546,untitled,2024.1.5,None,2024-10-09 13h37.45.332848 +0530,
159,0,159,0,327.0449393999879,,326.9565212999587,10,327.0449393999879,327.0449393999879,0.05358649999834597,328.9139408999472,[0.06],[0.34],[1],[0],[0],[1.9044340000255033],['target'],989773,001,2024-10-09_13h37.42.546,untitled,2024.1.5,None,2024-10-09 13h37.45.332848 +0530,
160,0,160,0,329.011734300002,,328.92070229997626,10,329.011734300002,329.011734300002,0.05725240003084764,330.6819976999541,[-0.28],[0.332],[1],[0],[0],[1.7046457000542432],['target'],989773,001,2024-10-09_13h37.42.546,untitled,2024.1.5,None,2024-10-09 13h37.45.332848 +0530,
161,0,161,0,330.7452515999903,,330.68859320000047,5,330.7452515999903,330.7452515999903,0.03179330000421032,332.4494600999751,[0.388],[0.272],[1],[0],[0],[1.7298058000160381],['target'],989773,001,2024-10-09_13h37.42.546,untitled,2024.1.5,None,2024-10-09 13h37.45.332848 +0530,
162,0,162,0,332.52750349999405,,332.4569390999968,10,332.52750349999405,332.52750349999405,0.0471665000077337,334.26387249998515,[-0.06],[-0.208],[1],[0],[0],[1.7603572999942116],['target'],989773,001,2024-10-09_13h37.42.546,untitled,2024.1.5,None,2024-10-09 13h37.45.332848 +0530,
163,0,163,0,334.3618925999617,,334.2706139999791,10,334.3618925999617,334.3618925999617,0.05958910001209006,337.7643651999533,[-0.16],[-0.176],[1],[0],[0],[3.4349458999931812],['target'],989773,001,2024-10-09_13h37.42.546,untitled,2024.1.5,None,2024-10-09 13h37.45.332848 +0530,
164,0,164,0,337.8284491999657,,337.77167309995275,5,337.8284491999657,337.8284491999657,0.03097570000682026,341.4809824999538,"[-0.058, -0.058, -0.044]","[-0.356, -0.356, -0.366]","[1, 1, 1]","[0, 0, 0]","[0, 0, 0]","[1.796083599969279, 2.678601699997671, 3.679156399972271]",['target'],989773,001,2024-10-09_13h37.42.546,untitled,2024.1.5,None,2024-10-09 13h37.45.332848 +0530,
165,0,165,0,341.5447324999841,,341.48778249998577,5,341.5447324999841,341.5447324999841,0.029462299949955195,343.5150249999715,[0.428],[0.26],[1],[0],[0],[1.9985360999708064],['target'],989773,001,2024-10-09_13h37.42.546,untitled,2024.1.5,None,2024-10-09 13h37.45.332848 +0530,
166,0,166,0,343.611351599975,,343.5212230999605,10,343.611351599975,343.611351599975,0.059543700015638024,345.3473482999834,[-0.438],[-0.042],[1],[0],[0],[1.767241399968043],['target'],989773,001,2024-10-09_13h37.42.546,untitled,2024.1.5,None,2024-10-09 13h37.45.332848 +0530,
167,0,167,0,345.4451904000016,,345.35431549994973,10,345.4451904000016,345.4451904000016,0.05888680001953617,347.8809392999974,[-0.308],[0.186],[1],[0],[0],[2.468481599993538],['target'],989773,001,2024-10-09_13h37.42.546,untitled,2024.1.5,None,2024-10-09 13h37.45.332848 +0530,
168,0,168,0,347.97844429995166,,347.88826549996156,10,347.97844429995166,347.97844429995166,0.060531599971000105,350.43070099997567,[0.236],[-0.47],[1],[0],[0],[2.4828157000010833],['target'],989773,001,2024-10-09_13h37.42.546,untitled,2024.1.5,None,2024-10-09 13h37.45.332848 +0530,
169,0,169,0,350.5285959999892,,350.43760769994697,10,350.5285959999892,350.5285959999892,0.06021580001106486,352.0639428999857,[-0.134],[-0.27],[1],[0],[0],[1.5668509000097401],['target'],989773,001,2024-10-09_13h37.42.546,untitled,2024.1.5,None,2024-10-09 13h37.45.332848 +0530,
170,0,170,0,352.14453839999624,,352.0704312999733,10,352.14453839999624,352.14453839999624,0.05013259995030239,353.8309774999507,[0.038],[-0.356],[1],[0],[0],[1.711011299979873],['target'],989773,001,2024-10-09_13h37.42.546,untitled,2024.1.5,None,2024-10-09 13h37.45.332848 +0530,
171,0,171,0,353.8949464999605,,353.83801619999576,5,353.8949464999605,353.8949464999605,0.03141310001956299,355.81532779999543,[0.138],[-0.388],[1],[0],[0],[1.9468181999982335],['target'],989773,001,2024-10-09_13h37.42.546,untitled,2024.1.5,None,2024-10-09 13h37.45.332848 +0530,
172,0,172,0,355.9119043999817,,355.82299949997105,10,355.9119043999817,355.9119043999817,0.060794200049713254,357.9471382999909,[0.302],[-0.398],[1],[0],[0],[2.0642493999912404],['target'],989773,001,2024-10-09_13h37.42.546,untitled,2024.1.5,None,2024-10-09 13h37.45.332848 +0530,
173,0,173,0,358.0119802999543,,357.95399419998284,5,358.0119802999543,358.0119802999543,0.03257480001775548,360.49859439994907,[-0.22],[0.454],[1],[0],[0],[2.5126382000162266],['target'],989773,001,2024-10-09_13h37.42.546,untitled,2024.1.5,None,2024-10-09 13h37.45.332848 +0530,
174,0,174,0,360.5612402999541,,360.50597229995765,10,360.5612402999541,360.5612402999541,0.046250199957285076,362.94837309996365,[-0.334],[-0.394],[1],[0],[0],[2.3968630000017583],['target'],989773,001,2024-10-09_13h37.42.546,untitled,2024.1.5,None,2024-10-09 13h37.45.332848 +0530,
175,0,175,0,363.0119355999632,,362.955088799994,5,363.0119355999632,363.0119355999632,0.03228320000926033,365.0155921999831,[0.008],[0.488],[1],[0],[0],[2.0288836999679916],['target'],989773,001,2024-10-09_13h37.42.546,untitled,2024.1.5,None,2024-10-09 13h37.45.332848 +0530,
176,0,176,0,365.09485949994996,,365.0220949999639,10,365.09485949994996,365.09485949994996,0.05395899998256937,366.84790959995007,[0.268],[0.108],[1],[0],[0],[1.772297499992419],['target'],989773,001,2024-10-09_13h37.42.546,untitled,2024.1.5,None,2024-10-09 13h37.45.332848 +0530,
177,0,177,0,366.9115069999825,,366.8548431999516,10,366.9115069999825,366.9115069999825,0.033836400019936264,368.9642178999493,[-0.13],[0.338],[1],[0],[0],[2.076264799979981],['target'],989773,001,2024-10-09_13h37.42.546,untitled,2024.1.5,None,2024-10-09 13h37.45.332848 +0530,
178,0,178,0,369.02876739995554,,368.9713835999719,5,369.02876739995554,369.02876739995554,0.033286700025200844,371.44881969998823,"[-0.036, -0.034]","[0.228, 0.216]","[1, 1]","[0, 0]","[0, 0]","[1.4619682999909855, 2.4449915000004694]",['target'],989773,001,2024-10-09_13h37.42.546,untitled,2024.1.5,None,2024-10-09 13h37.45.332848 +0530,
179,0,179,0,371.49487789999694,,371.45581539999694,5,371.49487789999694,371.49487789999694,0.02339320001192391,373.58314699999755,[-0.438],[-0.026],[1],[0],[0],[2.1046166999731213],['target'],989773,001,2024-10-09_13h37.42.546,untitled,2024.1.5,None,2024-10-09 13h37.45.332848 +0530,
180,0,180,0,373.64523979998194,,373.59077739994973,5,373.64523979998194,373.64523979998194,0.03292099997634068,375.3481075000018,[0.096],[0.172],[1],[0],[0],[1.725540799961891],['target'],989773,001,2024-10-09_13h37.42.546,untitled,2024.1.5,None,2024-10-09 13h37.45.332848 +0530,
181,0,181,0,375.4286732999608,,375.3542963999789,10,375.4286732999608,375.4286732999608,0.04616410000016913,377.3973965999903,[0.418],[-0.214],[1],[0],[0],[1.9976475999574177],['target'],989773,001,2024-10-09_13h37.42.546,untitled,2024.1.5,None,2024-10-09 13h37.45.332848 +0530,
182,0,182,0,377.4613927999744,,377.403962899989,10,377.4613927999744,377.4613927999744,0.04044040001463145,379.66521209996426,[0.354],[-0.086],[1],[0],[0],[2.2212772999773733],['target'],989773,001,2024-10-09_13h37.42.546,untitled,2024.1.5,None,2024-10-09 13h37.45.332848 +0530,
183,0,183,0,379.72806709998986,,379.6717241999577,10,379.72806709998986,379.72806709998986,0.04747200000565499,382.1630202999804,[0.284],[-0.476],[1],[0],[0],[2.444840500014834],['target'],989773,001,2024-10-09_13h37.42.546,untitled,2024.1.5,None,2024-10-09 13h37.45.332848 +0530,
184,0,184,0,382.1948765999987,,382.16575210000155,5,382.1948765999987,382.1948765999987,0.014061499969102442,384.1337366999942,[-0.306],[-0.228],[1],[0],[0],[1.953828900004737],['target'],989773,001,2024-10-09_13h37.42.546,untitled,2024.1.5,None,2024-10-09 13h37.45.332848 +0530,
185,0,185,0,384.211555899994,,384.1410463999491,10,384.211555899994,384.211555899994,0.04890160000650212,386.01437489996897,[0.006],[0.138],[1],[0],[0],[1.8253093999810517],['target'],989773,001,2024-10-09_13h37.42.546,untitled,2024.1.5,None,2024-10-09 13h37.45.332848 +0530,
186,0,186,0,386.0786390999565,,386.0213741999469,5,386.0786390999565,386.0786390999565,0.030720399983692914,387.665741099976,[-0.086],[0.386],[1],[0],[0],[1.6142608000081964],['target'],989773,001,2024-10-09_13h37.42.546,untitled,2024.1.5,None,2024-10-09 13h37.45.332848 +0530,
187,0,187,0,387.76185419998365,,387.6720346999937,10,387.76185419998365,387.76185419998365,0.058497500023804605,389.9982962999493,[-0.13],[-0.392],[1],[0],[0],[2.268496800039429],['target'],989773,001,2024-10-09_13h37.42.546,untitled,2024.1.5,None,2024-10-09 13h37.45.332848 +0530,
188,0,188,0,390.07822809997015,,390.0052730999887,10,390.07822809997015,390.07822809997015,0.058651400031521916,391.9653391999891,[0.088],[0.158],[1],[0],[0],[1.9019064999883994],['target'],989773,001,2024-10-09_13h37.42.546,untitled,2024.1.5,None,2024-10-09 13h37.45.332848 +0530,
189,0,189,0,392.0288913999684,,391.97167419997277,5,392.0288913999684,392.0288913999684,0.030364799953531474,394.2321465999703,[-0.452],[-0.028],[1],[0],[0],[2.230838200019207],['target'],989773,001,2024-10-09_13h37.42.546,untitled,2024.1.5,None,2024-10-09 13h37.45.332848 +0530,
190,0,190,0,394.2949939999962,,394.23953079996863,5,394.2949939999962,394.2949939999962,0.03552139998646453,396.3971658999799,[-0.044],[0.002],[1],[0],[0],[2.123044900014065],['target'],989773,001,2024-10-09_13h37.42.546,untitled,2024.1.5,None,2024-10-09 13h37.45.332848 +0530,
191,0,191,0,396.47864799998933,,396.4043573999661,10,396.47864799998933,396.47864799998933,0.054073099978268147,397.9484593999805,[0.052],[0.306],[1],[0],[0],[1.4908126999507658],['target'],989773,001,2024-10-09_13h37.42.546,untitled,2024.1.5,None,2024-10-09 13h37.45.332848 +0530,
192,0,192,0,398.0119072999805,,397.9561479999684,5,398.0119072999805,398.0119072999805,0.031332099984865636,399.83150049997494,[-0.324],[0.39],[1],[0],[0],[1.8446288999984972],['target'],989773,001,2024-10-09_13h37.42.546,untitled,2024.1.5,None,2024-10-09 13h37.45.332848 +0530,
193,0,193,0,399.8949989999528,,399.83982989995275,5,399.8949989999528,399.8949989999528,0.03370760002871975,401.5651203999878,[-0.17],[-0.138],[1],[0],[0],[1.6935238000005484],['target'],989773,001,2024-10-09_13h37.42.546,untitled,2024.1.5,None,2024-10-09 13h37.45.332848 +0530,
194,0,194,0,401.66148719994817,,401.57229469995946,10,401.66148719994817,401.66148719994817,0.048142599989660084,403.8319246000028,[0.486],[0.268],[1],[0],[0],[2.2120878999703564],['target'],989773,001,2024-10-09_13h37.42.546,untitled,2024.1.5,None,2024-10-09 13h37.45.332848 +0530,
195,0,195,0,403.91142649995163,,403.8387088999734,10,403.91142649995163,403.91142649995163,0.05762690003030002,405.68091679998906,[0.45],[-0.038],[1],[0],[0],[1.7850635999930091],['target'],989773,001,2024-10-09_13h37.42.546,untitled,2024.1.5,None,2024-10-09 13h37.45.332848 +0530,
196,0,196,0,405.74525769997854,,405.68805739999516,5,405.74525769997854,405.74525769997854,0.03214009996736422,408.3989321999834,[0.332],[-0.044],[1],[0],[0],[2.6794439000077546],['target'],989773,001,2024-10-09_13h37.42.546,untitled,2024.1.5,None,2024-10-09 13h37.45.332848 +0530,
197,0,197,0,408.4954549999675,,408.40538989997003,10,408.4954549999675,408.4954549999675,0.0626435000449419,411.1640476999455,[-0.196],[-0.33],[1],[0],[0],[2.6967832999653183],['target'],989773,001,2024-10-09_13h37.42.546,untitled,2024.1.5,None,2024-10-09 13h37.45.332848 +0530,
198,0,198,0,411.2449126999709,,411.1707279999973,10,411.2449126999709,411.2449126999709,0.052572500018868595,413.08121839998057,[-0.306],[0.228],[1],[0],[0],[1.8585671999608167],['target'],989773,001,2024-10-09_13h37.42.546,untitled,2024.1.5,None,2024-10-09 13h37.45.332848 +0530,
199,0,199,0,413.1454949999461,,413.08833079994656,5,413.1454949999461,413.1454949999461,0.0320445999968797,414.9484329999541,[-0.492],[-0.148],[1],[0],[0],[1.828881299996283],['target'],989773,001,2024-10-09_13h37.42.546,untitled,2024.1.5,None,2024-10-09 13h37.45.332848 +0530,
